ExperimentName	Subject	Session	Clock.Information	DataFile.Basename	Display.RefreshRate	ExperimentVersion	Group	RandomSeed	RuntimeCapabilities	RuntimeVersion	RuntimeVersionExpected	SessionDate	SessionStartDateTimeUtc	SessionTime	StudioVersion	Udvozlo2.DEVICE	UdvozloPROBA.DEVICE	UdvozloPROBA1.DEVICE	viszlat.DEVICE	Block	PROBA	PROBA.Cycle	PROBA.Sample	Procedure[Block]	Running[Block]	TESZT	TESZT.Cycle	TESZT.Sample	Trial	CORRECT	CORRECTPROBA	PROBAINGER.DEVICE	ProbIngerek	ProbIngerek.Cycle	ProbIngerek.Sample	Procedure[Trial]	PTARGET	Running[Trial]	TESZTINGER.ACC	TESZTINGER.CRESP	TESZTINGER.DEVICE	TESZTINGER.DurationError	TESZTINGER.OnsetDelay	TESZTINGER.OnsetTime	TESZTINGER.OnsetToOnsetTime	TESZTINGER.RESP	TESZTINGER.RT	TESZTINGER.RTTime	TesztIngerek	TesztIngerek.Cycle	TesztIngerek.Sample	TipusPROBA	TipusTESZT	TTarget
1_PALT_S1_tACS	100	1	"<?xml version=""1.0""?>\n<Clock xmlns:dt=""urn:schemas-microsoft-com:datatypes""><Description dt:dt=""string"">E-Prime Primary Realtime Clock</Description><StartTime><Timestamp dt:dt=""int"">0</Timestamp><DateUtc dt:dt=""string"">2022-06-26T12:41:12Z</DateUtc></StartTime><FrequencyChanges><FrequencyChange><Frequency dt:dt=""r8"">10000000</Frequency><Timestamp dt:dt=""r8"">785798181237</Timestamp><Current dt:dt=""r8"">0</Current><DateUtc dt:dt=""string"">2022-06-26T12:41:12Z</DateUtc></FrequencyChange></FrequencyChanges></Clock>\n"	1_PALT_S1_tACS-100-1	74.989	1.0.0.46	1	-178153291	Full	3.0.3.80	3.0.3.80	06-26-2022	2022. 06. 26. 12:41:12	14:41:12	3.0.3.82	Keyboard	Keyboard	Keyboard	Keyboard	1	1	1	1	BlockProc3	PROBA				1		2	Keyboard	3	1	1	TrialProc3	Ingerek/proba/3_mouse_duck.bmp	ProbIngerek														ru_proba		
1_PALT_S1_tACS	100	1	"<?xml version=""1.0""?>\n<Clock xmlns:dt=""urn:schemas-microsoft-com:datatypes""><Description dt:dt=""string"">E-Prime Primary Realtime Clock</Description><StartTime><Timestamp dt:dt=""int"">0</Timestamp><DateUtc dt:dt=""string"">2022-06-26T12:41:12Z</DateUtc></StartTime><FrequencyChanges><FrequencyChange><Frequency dt:dt=""r8"">10000000</Frequency><Timestamp dt:dt=""r8"">785798181237</Timestamp><Current dt:dt=""r8"">0</Current><DateUtc dt:dt=""string"">2022-06-26T12:41:12Z</DateUtc></FrequencyChange></FrequencyChanges></Clock>\n"	1_PALT_S1_tACS-100-1	74.989	1.0.0.46	1	-178153291	Full	3.0.3.80	3.0.3.80	06-26-2022	2022. 06. 26. 12:41:12	14:41:12	3.0.3.82	Keyboard	Keyboard	Keyboard	Keyboard	1	1	1	1	BlockProc3	PROBA				2		1	Keyboard	5	1	2	TrialProc3	Ingerek/proba/5_chicken_bicycle.bmp	ProbIngerek														uu_proba		
1_PALT_S1_tACS	100	1	"<?xml version=""1.0""?>\n<Clock xmlns:dt=""urn:schemas-microsoft-com:datatypes""><Description dt:dt=""string"">E-Prime Primary Realtime Clock</Description><StartTime><Timestamp dt:dt=""int"">0</Timestamp><DateUtc dt:dt=""string"">2022-06-26T12:41:12Z</DateUtc></StartTime><FrequencyChanges><FrequencyChange><Frequency dt:dt=""r8"">10000000</Frequency><Timestamp dt:dt=""r8"">785798181237</Timestamp><Current dt:dt=""r8"">0</Current><DateUtc dt:dt=""string"">2022-06-26T12:41:12Z</DateUtc></FrequencyChange></FrequencyChanges></Clock>\n"	1_PALT_S1_tACS-100-1	74.989	1.0.0.46	1	-178153291	Full	3.0.3.80	3.0.3.80	06-26-2022	2022. 06. 26. 12:41:12	14:41:12	3.0.3.82	Keyboard	Keyboard	Keyboard	Keyboard	1	1	1	1	BlockProc3	PROBA				3		3	Keyboard	4	1	3	TrialProc3	Ingerek/proba/4_pencil_top.bmp	ProbIngerek														ur_proba		
1_PALT_S1_tACS	100	1	"<?xml version=""1.0""?>\n<Clock xmlns:dt=""urn:schemas-microsoft-com:datatypes""><Description dt:dt=""string"">E-Prime Primary Realtime Clock</Description><StartTime><Timestamp dt:dt=""int"">0</Timestamp><DateUtc dt:dt=""string"">2022-06-26T12:41:12Z</DateUtc></StartTime><FrequencyChanges><FrequencyChange><Frequency dt:dt=""r8"">10000000</Frequency><Timestamp dt:dt=""r8"">785798181237</Timestamp><Current dt:dt=""r8"">0</Current><DateUtc dt:dt=""string"">2022-06-26T12:41:12Z</DateUtc></FrequencyChange></FrequencyChanges></Clock>\n"	1_PALT_S1_tACS-100-1	74.989	1.0.0.46	1	-178153291	Full	3.0.3.80	3.0.3.80	06-26-2022	2022. 06. 26. 12:41:12	14:41:12	3.0.3.82	Keyboard	Keyboard	Keyboard	Keyboard	1	1	1	1	BlockProc3	PROBA				4		4	Keyboard	2	1	4	TrialProc3	Ingerek/proba/2_carrott_truck.bmp	ProbIngerek														rru_proba		
1_PALT_S1_tACS	100	1	"<?xml version=""1.0""?>\n<Clock xmlns:dt=""urn:schemas-microsoft-com:datatypes""><Description dt:dt=""string"">E-Prime Primary Realtime Clock</Description><StartTime><Timestamp dt:dt=""int"">0</Timestamp><DateUtc dt:dt=""string"">2022-06-26T12:41:12Z</DateUtc></StartTime><FrequencyChanges><FrequencyChange><Frequency dt:dt=""r8"">10000000</Frequency><Timestamp dt:dt=""r8"">785798181237</Timestamp><Current dt:dt=""r8"">0</Current><DateUtc dt:dt=""string"">2022-06-26T12:41:12Z</DateUtc></FrequencyChange></FrequencyChanges></Clock>\n"	1_PALT_S1_tACS-100-1	74.989	1.0.0.46	1	-178153291	Full	3.0.3.80	3.0.3.80	06-26-2022	2022. 06. 26. 12:41:12	14:41:12	3.0.3.82	Keyboard	Keyboard	Keyboard	Keyboard	1	1	1	1	BlockProc3	PROBA				5		5	Keyboard	1	1	5	TrialProc3	Ingerek/proba/1_alligator_baby carriage.bmp	ProbIngerek														rre_proba		
1_PALT_S1_tACS	100	1	"<?xml version=""1.0""?>\n<Clock xmlns:dt=""urn:schemas-microsoft-com:datatypes""><Description dt:dt=""string"">E-Prime Primary Realtime Clock</Description><StartTime><Timestamp dt:dt=""int"">0</Timestamp><DateUtc dt:dt=""string"">2022-06-26T12:41:12Z</DateUtc></StartTime><FrequencyChanges><FrequencyChange><Frequency dt:dt=""r8"">10000000</Frequency><Timestamp dt:dt=""r8"">785798181237</Timestamp><Current dt:dt=""r8"">0</Current><DateUtc dt:dt=""string"">2022-06-26T12:41:12Z</DateUtc></FrequencyChange></FrequencyChanges></Clock>\n"	1_PALT_S1_tACS-100-1	74.989	1.0.0.46	1	-178153291	Full	3.0.3.80	3.0.3.80	06-26-2022	2022. 06. 26. 12:41:12	14:41:12	3.0.3.82	Keyboard	Keyboard	Keyboard	Keyboard	2				BlockProc2	TESZT	1	1	1	1	5						TrialProc2		TesztIngerek	1	5	Keyboard	-999999	20	84504	0	5	4152	88656	2	1	1		rre	Ingerek/teszt/2_cat_baseballb.bmp
1_PALT_S1_tACS	100	1	"<?xml version=""1.0""?>\n<Clock xmlns:dt=""urn:schemas-microsoft-com:datatypes""><Description dt:dt=""string"">E-Prime Primary Realtime Clock</Description><StartTime><Timestamp dt:dt=""int"">0</Timestamp><DateUtc dt:dt=""string"">2022-06-26T12:41:12Z</DateUtc></StartTime><FrequencyChanges><FrequencyChange><Frequency dt:dt=""r8"">10000000</Frequency><Timestamp dt:dt=""r8"">785798181237</Timestamp><Current dt:dt=""r8"">0</Current><DateUtc dt:dt=""string"">2022-06-26T12:41:12Z</DateUtc></FrequencyChange></FrequencyChanges></Clock>\n"	1_PALT_S1_tACS-100-1	74.989	1.0.0.46	1	-178153291	Full	3.0.3.80	3.0.3.80	06-26-2022	2022. 06. 26. 12:41:12	14:41:12	3.0.3.82	Keyboard	Keyboard	Keyboard	Keyboard	2				BlockProc2	TESZT	1	1	1	2	4						TrialProc2		TesztIngerek	1	4	Keyboard	-999999	20	89184	0	4	7624	96808	19	1	2		rru	Ingerek/teszt/13_pig_sailboat.bmp
1_PALT_S1_tACS	100	1	"<?xml version=""1.0""?>\n<Clock xmlns:dt=""urn:schemas-microsoft-com:datatypes""><Description dt:dt=""string"">E-Prime Primary Realtime Clock</Description><StartTime><Timestamp dt:dt=""int"">0</Timestamp><DateUtc dt:dt=""string"">2022-06-26T12:41:12Z</DateUtc></StartTime><FrequencyChanges><FrequencyChange><Frequency dt:dt=""r8"">10000000</Frequency><Timestamp dt:dt=""r8"">785798181237</Timestamp><Current dt:dt=""r8"">0</Current><DateUtc dt:dt=""string"">2022-06-26T12:41:12Z</DateUtc></FrequencyChange></FrequencyChanges></Clock>\n"	1_PALT_S1_tACS-100-1	74.989	1.0.0.46	1	-178153291	Full	3.0.3.80	3.0.3.80	06-26-2022	2022. 06. 26. 12:41:12	14:41:12	3.0.3.82	Keyboard	Keyboard	Keyboard	Keyboard	2				BlockProc2	TESZT	1	1	1	3	4						TrialProc2		TesztIngerek	0	4	Keyboard	-999999	20	97345	0	5	3863	101208	20	1	3		rru	Ingerek/teszt/14_spider_shoe.bmp
1_PALT_S1_tACS	100	1	"<?xml version=""1.0""?>\n<Clock xmlns:dt=""urn:schemas-microsoft-com:datatypes""><Description dt:dt=""string"">E-Prime Primary Realtime Clock</Description><StartTime><Timestamp dt:dt=""int"">0</Timestamp><DateUtc dt:dt=""string"">2022-06-26T12:41:12Z</DateUtc></StartTime><FrequencyChanges><FrequencyChange><Frequency dt:dt=""r8"">10000000</Frequency><Timestamp dt:dt=""r8"">785798181237</Timestamp><Current dt:dt=""r8"">0</Current><DateUtc dt:dt=""string"">2022-06-26T12:41:12Z</DateUtc></FrequencyChange></FrequencyChanges></Clock>\n"	1_PALT_S1_tACS-100-1	74.989	1.0.0.46	1	-178153291	Full	3.0.3.80	3.0.3.80	06-26-2022	2022. 06. 26. 12:41:12	14:41:12	3.0.3.82	Keyboard	Keyboard	Keyboard	Keyboard	2				BlockProc2	TESZT	1	1	1	4	3						TrialProc2		TesztIngerek	1	3	Keyboard	-999999	20	101745	0	3	4495	106240	6	1	4		ur	Ingerek/teszt/21_swan_television.bmp
1_PALT_S1_tACS	100	1	"<?xml version=""1.0""?>\n<Clock xmlns:dt=""urn:schemas-microsoft-com:datatypes""><Description dt:dt=""string"">E-Prime Primary Realtime Clock</Description><StartTime><Timestamp dt:dt=""int"">0</Timestamp><DateUtc dt:dt=""string"">2022-06-26T12:41:12Z</DateUtc></StartTime><FrequencyChanges><FrequencyChange><Frequency dt:dt=""r8"">10000000</Frequency><Timestamp dt:dt=""r8"">785798181237</Timestamp><Current dt:dt=""r8"">0</Current><DateUtc dt:dt=""string"">2022-06-26T12:41:12Z</DateUtc></FrequencyChange></FrequencyChanges></Clock>\n"	1_PALT_S1_tACS-100-1	74.989	1.0.0.46	1	-178153291	Full	3.0.3.80	3.0.3.80	06-26-2022	2022. 06. 26. 12:41:12	14:41:12	3.0.3.82	Keyboard	Keyboard	Keyboard	Keyboard	2				BlockProc2	TESZT	1	1	1	5	5						TrialProc2		TesztIngerek	1	5	Keyboard	-999999	20	106772	0	5	3148	109920	17	1	5		rre	Ingerek/teszt/5_giraffe_coat.bmp
1_PALT_S1_tACS	100	1	"<?xml version=""1.0""?>\n<Clock xmlns:dt=""urn:schemas-microsoft-com:datatypes""><Description dt:dt=""string"">E-Prime Primary Realtime Clock</Description><StartTime><Timestamp dt:dt=""int"">0</Timestamp><DateUtc dt:dt=""string"">2022-06-26T12:41:12Z</DateUtc></StartTime><FrequencyChanges><FrequencyChange><Frequency dt:dt=""r8"">10000000</Frequency><Timestamp dt:dt=""r8"">785798181237</Timestamp><Current dt:dt=""r8"">0</Current><DateUtc dt:dt=""string"">2022-06-26T12:41:12Z</DateUtc></FrequencyChange></FrequencyChanges></Clock>\n"	1_PALT_S1_tACS-100-1	74.989	1.0.0.46	1	-178153291	Full	3.0.3.80	3.0.3.80	06-26-2022	2022. 06. 26. 12:41:12	14:41:12	3.0.3.82	Keyboard	Keyboard	Keyboard	Keyboard	2				BlockProc2	TESZT	1	1	1	6	1						TrialProc2		TesztIngerek	1	1	Keyboard	-999999	20	110452	0	1	2979	113431	7	1	6		uu	Ingerek/teszt/25_beetle_bus.bmp
1_PALT_S1_tACS	100	1	"<?xml version=""1.0""?>\n<Clock xmlns:dt=""urn:schemas-microsoft-com:datatypes""><Description dt:dt=""string"">E-Prime Primary Realtime Clock</Description><StartTime><Timestamp dt:dt=""int"">0</Timestamp><DateUtc dt:dt=""string"">2022-06-26T12:41:12Z</DateUtc></StartTime><FrequencyChanges><FrequencyChange><Frequency dt:dt=""r8"">10000000</Frequency><Timestamp dt:dt=""r8"">785798181237</Timestamp><Current dt:dt=""r8"">0</Current><DateUtc dt:dt=""string"">2022-06-26T12:41:12Z</DateUtc></FrequencyChange></FrequencyChanges></Clock>\n"	1_PALT_S1_tACS-100-1	74.989	1.0.0.46	1	-178153291	Full	3.0.3.80	3.0.3.80	06-26-2022	2022. 06. 26. 12:41:12	14:41:12	3.0.3.82	Keyboard	Keyboard	Keyboard	Keyboard	2				BlockProc2	TESZT	1	1	1	7	3						TrialProc2		TesztIngerek	1	3	Keyboard	-999999	20	113959	0	3	4640	118599	22	1	7		ur	Ingerek/teszt/23_tiger_windmill.bmp
1_PALT_S1_tACS	100	1	"<?xml version=""1.0""?>\n<Clock xmlns:dt=""urn:schemas-microsoft-com:datatypes""><Description dt:dt=""string"">E-Prime Primary Realtime Clock</Description><StartTime><Timestamp dt:dt=""int"">0</Timestamp><DateUtc dt:dt=""string"">2022-06-26T12:41:12Z</DateUtc></StartTime><FrequencyChanges><FrequencyChange><Frequency dt:dt=""r8"">10000000</Frequency><Timestamp dt:dt=""r8"">785798181237</Timestamp><Current dt:dt=""r8"">0</Current><DateUtc dt:dt=""string"">2022-06-26T12:41:12Z</DateUtc></FrequencyChange></FrequencyChanges></Clock>\n"	1_PALT_S1_tACS-100-1	74.989	1.0.0.46	1	-178153291	Full	3.0.3.80	3.0.3.80	06-26-2022	2022. 06. 26. 12:41:12	14:41:12	3.0.3.82	Keyboard	Keyboard	Keyboard	Keyboard	2				BlockProc2	TESZT	1	1	1	8	4						TrialProc2		TesztIngerek	0	4	Keyboard	-999999	20	119132	0	5	4787	123919	12	1	8		rru	Ingerek/teszt/12_peacock_rollingpin.bmp
1_PALT_S1_tACS	100	1	"<?xml version=""1.0""?>\n<Clock xmlns:dt=""urn:schemas-microsoft-com:datatypes""><Description dt:dt=""string"">E-Prime Primary Realtime Clock</Description><StartTime><Timestamp dt:dt=""int"">0</Timestamp><DateUtc dt:dt=""string"">2022-06-26T12:41:12Z</DateUtc></StartTime><FrequencyChanges><FrequencyChange><Frequency dt:dt=""r8"">10000000</Frequency><Timestamp dt:dt=""r8"">785798181237</Timestamp><Current dt:dt=""r8"">0</Current><DateUtc dt:dt=""string"">2022-06-26T12:41:12Z</DateUtc></FrequencyChange></FrequencyChanges></Clock>\n"	1_PALT_S1_tACS-100-1	74.989	1.0.0.46	1	-178153291	Full	3.0.3.80	3.0.3.80	06-26-2022	2022. 06. 26. 12:41:12	14:41:12	3.0.3.82	Keyboard	Keyboard	Keyboard	Keyboard	2				BlockProc2	TESZT	1	1	1	9	3						TrialProc2		TesztIngerek	1	3	Keyboard	-999999	20	124453	0	3	2794	127247	14	1	9		ur	Ingerek/teszt/22_sheep_vest.bmp
1_PALT_S1_tACS	100	1	"<?xml version=""1.0""?>\n<Clock xmlns:dt=""urn:schemas-microsoft-com:datatypes""><Description dt:dt=""string"">E-Prime Primary Realtime Clock</Description><StartTime><Timestamp dt:dt=""int"">0</Timestamp><DateUtc dt:dt=""string"">2022-06-26T12:41:12Z</DateUtc></StartTime><FrequencyChanges><FrequencyChange><Frequency dt:dt=""r8"">10000000</Frequency><Timestamp dt:dt=""r8"">785798181237</Timestamp><Current dt:dt=""r8"">0</Current><DateUtc dt:dt=""string"">2022-06-26T12:41:12Z</DateUtc></FrequencyChange></FrequencyChanges></Clock>\n"	1_PALT_S1_tACS-100-1	74.989	1.0.0.46	1	-178153291	Full	3.0.3.80	3.0.3.80	06-26-2022	2022. 06. 26. 12:41:12	14:41:12	3.0.3.82	Keyboard	Keyboard	Keyboard	Keyboard	2				BlockProc2	TESZT	1	1	1	10	4						TrialProc2		TesztIngerek	0	4	Keyboard	-999999	20	127773	0	5	2978	130751	11	1	10		rru	Ingerek/teszt/11_monkey_motor.bmp
1_PALT_S1_tACS	100	1	"<?xml version=""1.0""?>\n<Clock xmlns:dt=""urn:schemas-microsoft-com:datatypes""><Description dt:dt=""string"">E-Prime Primary Realtime Clock</Description><StartTime><Timestamp dt:dt=""int"">0</Timestamp><DateUtc dt:dt=""string"">2022-06-26T12:41:12Z</DateUtc></StartTime><FrequencyChanges><FrequencyChange><Frequency dt:dt=""r8"">10000000</Frequency><Timestamp dt:dt=""r8"">785798181237</Timestamp><Current dt:dt=""r8"">0</Current><DateUtc dt:dt=""string"">2022-06-26T12:41:12Z</DateUtc></FrequencyChange></FrequencyChanges></Clock>\n"	1_PALT_S1_tACS-100-1	74.989	1.0.0.46	1	-178153291	Full	3.0.3.80	3.0.3.80	06-26-2022	2022. 06. 26. 12:41:12	14:41:12	3.0.3.82	Keyboard	Keyboard	Keyboard	Keyboard	2				BlockProc2	TESZT	1	1	1	11	5						TrialProc2		TesztIngerek	1	5	Keyboard	-999999	20	131280	0	5	2615	133895	18	1	11		rre	Ingerek/teszt/6_gorilla_desk.bmp
1_PALT_S1_tACS	100	1	"<?xml version=""1.0""?>\n<Clock xmlns:dt=""urn:schemas-microsoft-com:datatypes""><Description dt:dt=""string"">E-Prime Primary Realtime Clock</Description><StartTime><Timestamp dt:dt=""int"">0</Timestamp><DateUtc dt:dt=""string"">2022-06-26T12:41:12Z</DateUtc></StartTime><FrequencyChanges><FrequencyChange><Frequency dt:dt=""r8"">10000000</Frequency><Timestamp dt:dt=""r8"">785798181237</Timestamp><Current dt:dt=""r8"">0</Current><DateUtc dt:dt=""string"">2022-06-26T12:41:12Z</DateUtc></FrequencyChange></FrequencyChanges></Clock>\n"	1_PALT_S1_tACS-100-1	74.989	1.0.0.46	1	-178153291	Full	3.0.3.80	3.0.3.80	06-26-2022	2022. 06. 26. 12:41:12	14:41:12	3.0.3.82	Keyboard	Keyboard	Keyboard	Keyboard	2				BlockProc2	TESZT	1	1	1	12	1						TrialProc2		TesztIngerek	1	1	Keyboard	-999999	20	134426	0	1	3053	137479	8	1	12		uu	Ingerek/teszt/26_butterfly_chair.bmp
1_PALT_S1_tACS	100	1	"<?xml version=""1.0""?>\n<Clock xmlns:dt=""urn:schemas-microsoft-com:datatypes""><Description dt:dt=""string"">E-Prime Primary Realtime Clock</Description><StartTime><Timestamp dt:dt=""int"">0</Timestamp><DateUtc dt:dt=""string"">2022-06-26T12:41:12Z</DateUtc></StartTime><FrequencyChanges><FrequencyChange><Frequency dt:dt=""r8"">10000000</Frequency><Timestamp dt:dt=""r8"">785798181237</Timestamp><Current dt:dt=""r8"">0</Current><DateUtc dt:dt=""string"">2022-06-26T12:41:12Z</DateUtc></FrequencyChange></FrequencyChanges></Clock>\n"	1_PALT_S1_tACS-100-1	74.989	1.0.0.46	1	-178153291	Full	3.0.3.80	3.0.3.80	06-26-2022	2022. 06. 26. 12:41:12	14:41:12	3.0.3.82	Keyboard	Keyboard	Keyboard	Keyboard	2				BlockProc2	TESZT	1	1	1	13	1						TrialProc2		TesztIngerek	1	1	Keyboard	-999999	20	138013	0	1	5010	143023	24	1	13		uu	Ingerek/teszt/30_leopard_garbage can.bmp
1_PALT_S1_tACS	100	1	"<?xml version=""1.0""?>\n<Clock xmlns:dt=""urn:schemas-microsoft-com:datatypes""><Description dt:dt=""string"">E-Prime Primary Realtime Clock</Description><StartTime><Timestamp dt:dt=""int"">0</Timestamp><DateUtc dt:dt=""string"">2022-06-26T12:41:12Z</DateUtc></StartTime><FrequencyChanges><FrequencyChange><Frequency dt:dt=""r8"">10000000</Frequency><Timestamp dt:dt=""r8"">785798181237</Timestamp><Current dt:dt=""r8"">0</Current><DateUtc dt:dt=""string"">2022-06-26T12:41:12Z</DateUtc></FrequencyChange></FrequencyChanges></Clock>\n"	1_PALT_S1_tACS-100-1	74.989	1.0.0.46	1	-178153291	Full	3.0.3.80	3.0.3.80	06-26-2022	2022. 06. 26. 12:41:12	14:41:12	3.0.3.82	Keyboard	Keyboard	Keyboard	Keyboard	2				BlockProc2	TESZT	1	1	1	14	2						TrialProc2		TesztIngerek	1	2	Keyboard	-999999	20	143560	0	2	4847	148407	5	1	14		ru	Ingerek/teszt/17_rhino_hat.bmp
1_PALT_S1_tACS	100	1	"<?xml version=""1.0""?>\n<Clock xmlns:dt=""urn:schemas-microsoft-com:datatypes""><Description dt:dt=""string"">E-Prime Primary Realtime Clock</Description><StartTime><Timestamp dt:dt=""int"">0</Timestamp><DateUtc dt:dt=""string"">2022-06-26T12:41:12Z</DateUtc></StartTime><FrequencyChanges><FrequencyChange><Frequency dt:dt=""r8"">10000000</Frequency><Timestamp dt:dt=""r8"">785798181237</Timestamp><Current dt:dt=""r8"">0</Current><DateUtc dt:dt=""string"">2022-06-26T12:41:12Z</DateUtc></FrequencyChange></FrequencyChanges></Clock>\n"	1_PALT_S1_tACS-100-1	74.989	1.0.0.46	1	-178153291	Full	3.0.3.80	3.0.3.80	06-26-2022	2022. 06. 26. 12:41:12	14:41:12	3.0.3.82	Keyboard	Keyboard	Keyboard	Keyboard	2				BlockProc2	TESZT	1	1	1	15	5						TrialProc2		TesztIngerek	1	5	Keyboard	-999999	20	148934	0	5	3473	152407	9	1	15		rre	Ingerek/teszt/3_donkey_bowl.bmp
1_PALT_S1_tACS	100	1	"<?xml version=""1.0""?>\n<Clock xmlns:dt=""urn:schemas-microsoft-com:datatypes""><Description dt:dt=""string"">E-Prime Primary Realtime Clock</Description><StartTime><Timestamp dt:dt=""int"">0</Timestamp><DateUtc dt:dt=""string"">2022-06-26T12:41:12Z</DateUtc></StartTime><FrequencyChanges><FrequencyChange><Frequency dt:dt=""r8"">10000000</Frequency><Timestamp dt:dt=""r8"">785798181237</Timestamp><Current dt:dt=""r8"">0</Current><DateUtc dt:dt=""string"">2022-06-26T12:41:12Z</DateUtc></FrequencyChange></FrequencyChanges></Clock>\n"	1_PALT_S1_tACS-100-1	74.989	1.0.0.46	1	-178153291	Full	3.0.3.80	3.0.3.80	06-26-2022	2022. 06. 26. 12:41:12	14:41:12	3.0.3.82	Keyboard	Keyboard	Keyboard	Keyboard	2				BlockProc2	TESZT	1	1	1	16	4						TrialProc2		TesztIngerek	0	4	Keyboard	-999999	20	152934	0	5	8313	161247	3	1	16		rru	Ingerek/teszt/9_lion_kettle.bmp
1_PALT_S1_tACS	100	1	"<?xml version=""1.0""?>\n<Clock xmlns:dt=""urn:schemas-microsoft-com:datatypes""><Description dt:dt=""string"">E-Prime Primary Realtime Clock</Description><StartTime><Timestamp dt:dt=""int"">0</Timestamp><DateUtc dt:dt=""string"">2022-06-26T12:41:12Z</DateUtc></StartTime><FrequencyChanges><FrequencyChange><Frequency dt:dt=""r8"">10000000</Frequency><Timestamp dt:dt=""r8"">785798181237</Timestamp><Current dt:dt=""r8"">0</Current><DateUtc dt:dt=""string"">2022-06-26T12:41:12Z</DateUtc></FrequencyChange></FrequencyChanges></Clock>\n"	1_PALT_S1_tACS-100-1	74.989	1.0.0.46	1	-178153291	Full	3.0.3.80	3.0.3.80	06-26-2022	2022. 06. 26. 12:41:12	14:41:12	3.0.3.82	Keyboard	Keyboard	Keyboard	Keyboard	2				BlockProc2	TESZT	1	1	1	17	4						TrialProc2		TesztIngerek	1	4	Keyboard	-999999	20	161774	0	4	3265	165039	4	1	17		rru	Ingerek/teszt/10_lobster_ladder.bmp
1_PALT_S1_tACS	100	1	"<?xml version=""1.0""?>\n<Clock xmlns:dt=""urn:schemas-microsoft-com:datatypes""><Description dt:dt=""string"">E-Prime Primary Realtime Clock</Description><StartTime><Timestamp dt:dt=""int"">0</Timestamp><DateUtc dt:dt=""string"">2022-06-26T12:41:12Z</DateUtc></StartTime><FrequencyChanges><FrequencyChange><Frequency dt:dt=""r8"">10000000</Frequency><Timestamp dt:dt=""r8"">785798181237</Timestamp><Current dt:dt=""r8"">0</Current><DateUtc dt:dt=""string"">2022-06-26T12:41:12Z</DateUtc></FrequencyChange></FrequencyChanges></Clock>\n"	1_PALT_S1_tACS-100-1	74.989	1.0.0.46	1	-178153291	Full	3.0.3.80	3.0.3.80	06-26-2022	2022. 06. 26. 12:41:12	14:41:12	3.0.3.82	Keyboard	Keyboard	Keyboard	Keyboard	2				BlockProc2	TESZT	1	1	1	18	1						TrialProc2		TesztIngerek	1	1	Keyboard	-999999	20	165575	0	1	7512	173087	16	1	18		uu	Ingerek/teszt/28_horse_couch.bmp
1_PALT_S1_tACS	100	1	"<?xml version=""1.0""?>\n<Clock xmlns:dt=""urn:schemas-microsoft-com:datatypes""><Description dt:dt=""string"">E-Prime Primary Realtime Clock</Description><StartTime><Timestamp dt:dt=""int"">0</Timestamp><DateUtc dt:dt=""string"">2022-06-26T12:41:12Z</DateUtc></StartTime><FrequencyChanges><FrequencyChange><Frequency dt:dt=""r8"">10000000</Frequency><Timestamp dt:dt=""r8"">785798181237</Timestamp><Current dt:dt=""r8"">0</Current><DateUtc dt:dt=""string"">2022-06-26T12:41:12Z</DateUtc></FrequencyChange></FrequencyChanges></Clock>\n"	1_PALT_S1_tACS-100-1	74.989	1.0.0.46	1	-178153291	Full	3.0.3.80	3.0.3.80	06-26-2022	2022. 06. 26. 12:41:12	14:41:12	3.0.3.82	Keyboard	Keyboard	Keyboard	Keyboard	2				BlockProc2	TESZT	1	1	1	19	5						TrialProc2		TesztIngerek	1	5	Keyboard	-999999	20	173615	0	5	3360	176975	1	1	19		rre	Ingerek/teszt/1_bee_ball.bmp
1_PALT_S1_tACS	100	1	"<?xml version=""1.0""?>\n<Clock xmlns:dt=""urn:schemas-microsoft-com:datatypes""><Description dt:dt=""string"">E-Prime Primary Realtime Clock</Description><StartTime><Timestamp dt:dt=""int"">0</Timestamp><DateUtc dt:dt=""string"">2022-06-26T12:41:12Z</DateUtc></StartTime><FrequencyChanges><FrequencyChange><Frequency dt:dt=""r8"">10000000</Frequency><Timestamp dt:dt=""r8"">785798181237</Timestamp><Current dt:dt=""r8"">0</Current><DateUtc dt:dt=""string"">2022-06-26T12:41:12Z</DateUtc></FrequencyChange></FrequencyChanges></Clock>\n"	1_PALT_S1_tACS-100-1	74.989	1.0.0.46	1	-178153291	Full	3.0.3.80	3.0.3.80	06-26-2022	2022. 06. 26. 12:41:12	14:41:12	3.0.3.82	Keyboard	Keyboard	Keyboard	Keyboard	2				BlockProc2	TESZT	1	1	1	20	5						TrialProc2		TesztIngerek	1	5	Keyboard	-999999	21	177509	0	5	10386	187895	10	1	20		rre	Ingerek/teszt/4_fox_clock.bmp
1_PALT_S1_tACS	100	1	"<?xml version=""1.0""?>\n<Clock xmlns:dt=""urn:schemas-microsoft-com:datatypes""><Description dt:dt=""string"">E-Prime Primary Realtime Clock</Description><StartTime><Timestamp dt:dt=""int"">0</Timestamp><DateUtc dt:dt=""string"">2022-06-26T12:41:12Z</DateUtc></StartTime><FrequencyChanges><FrequencyChange><Frequency dt:dt=""r8"">10000000</Frequency><Timestamp dt:dt=""r8"">785798181237</Timestamp><Current dt:dt=""r8"">0</Current><DateUtc dt:dt=""string"">2022-06-26T12:41:12Z</DateUtc></FrequencyChange></FrequencyChanges></Clock>\n"	1_PALT_S1_tACS-100-1	74.989	1.0.0.46	1	-178153291	Full	3.0.3.80	3.0.3.80	06-26-2022	2022. 06. 26. 12:41:12	14:41:12	3.0.3.82	Keyboard	Keyboard	Keyboard	Keyboard	2				BlockProc2	TESZT	1	1	1	21	1						TrialProc2		TesztIngerek	1	1	Keyboard	-999999	20	188429	0	1	2074	190503	23	1	21		uu	Ingerek/teszt/29_fly_cup.bmp
1_PALT_S1_tACS	100	1	"<?xml version=""1.0""?>\n<Clock xmlns:dt=""urn:schemas-microsoft-com:datatypes""><Description dt:dt=""string"">E-Prime Primary Realtime Clock</Description><StartTime><Timestamp dt:dt=""int"">0</Timestamp><DateUtc dt:dt=""string"">2022-06-26T12:41:12Z</DateUtc></StartTime><FrequencyChanges><FrequencyChange><Frequency dt:dt=""r8"">10000000</Frequency><Timestamp dt:dt=""r8"">785798181237</Timestamp><Current dt:dt=""r8"">0</Current><DateUtc dt:dt=""string"">2022-06-26T12:41:12Z</DateUtc></FrequencyChange></FrequencyChanges></Clock>\n"	1_PALT_S1_tACS-100-1	74.989	1.0.0.46	1	-178153291	Full	3.0.3.80	3.0.3.80	06-26-2022	2022. 06. 26. 12:41:12	14:41:12	3.0.3.82	Keyboard	Keyboard	Keyboard	Keyboard	2				BlockProc2	TESZT	1	1	1	22	2						TrialProc2		TesztIngerek	1	2	Keyboard	-999999	20	191029	0	2	3714	194743	13	1	22		ru	Ingerek/teszt/18_rooster_knife.bmp
1_PALT_S1_tACS	100	1	"<?xml version=""1.0""?>\n<Clock xmlns:dt=""urn:schemas-microsoft-com:datatypes""><Description dt:dt=""string"">E-Prime Primary Realtime Clock</Description><StartTime><Timestamp dt:dt=""int"">0</Timestamp><DateUtc dt:dt=""string"">2022-06-26T12:41:12Z</DateUtc></StartTime><FrequencyChanges><FrequencyChange><Frequency dt:dt=""r8"">10000000</Frequency><Timestamp dt:dt=""r8"">785798181237</Timestamp><Current dt:dt=""r8"">0</Current><DateUtc dt:dt=""string"">2022-06-26T12:41:12Z</DateUtc></FrequencyChange></FrequencyChanges></Clock>\n"	1_PALT_S1_tACS-100-1	74.989	1.0.0.46	1	-178153291	Full	3.0.3.80	3.0.3.80	06-26-2022	2022. 06. 26. 12:41:12	14:41:12	3.0.3.82	Keyboard	Keyboard	Keyboard	Keyboard	2				BlockProc2	TESZT	1	1	1	23	1						TrialProc2		TesztIngerek	1	1	Keyboard	-999999	20	195269	0	1	3946	199215	15	1	23		uu	Ingerek/teszt/27_elephant_candel.bmp
1_PALT_S1_tACS	100	1	"<?xml version=""1.0""?>\n<Clock xmlns:dt=""urn:schemas-microsoft-com:datatypes""><Description dt:dt=""string"">E-Prime Primary Realtime Clock</Description><StartTime><Timestamp dt:dt=""int"">0</Timestamp><DateUtc dt:dt=""string"">2022-06-26T12:41:12Z</DateUtc></StartTime><FrequencyChanges><FrequencyChange><Frequency dt:dt=""r8"">10000000</Frequency><Timestamp dt:dt=""r8"">785798181237</Timestamp><Current dt:dt=""r8"">0</Current><DateUtc dt:dt=""string"">2022-06-26T12:41:12Z</DateUtc></FrequencyChange></FrequencyChanges></Clock>\n"	1_PALT_S1_tACS-100-1	74.989	1.0.0.46	1	-178153291	Full	3.0.3.80	3.0.3.80	06-26-2022	2022. 06. 26. 12:41:12	14:41:12	3.0.3.82	Keyboard	Keyboard	Keyboard	Keyboard	2				BlockProc2	TESZT	1	1	1	24	2						TrialProc2		TesztIngerek	1	2	Keyboard	-999999	20	199750	0	2	4745	204495	21	1	24		ru	Ingerek/teszt/19_seal_rollerskate.bmp
1_PALT_S1_tACS	101	1	"<?xml version=""1.0""?>\n<Clock xmlns:dt=""urn:schemas-microsoft-com:datatypes""><Description dt:dt=""string"">E-Prime Primary Realtime Clock</Description><StartTime><Timestamp dt:dt=""int"">0</Timestamp><DateUtc dt:dt=""string"">2022-07-04T16:28:16Z</DateUtc></StartTime><FrequencyChanges><FrequencyChange><Frequency dt:dt=""r8"">10000000</Frequency><Timestamp dt:dt=""r8"">7834215390527</Timestamp><Current dt:dt=""r8"">0</Current><DateUtc dt:dt=""string"">2022-07-04T16:28:16Z</DateUtc></FrequencyChange></FrequencyChanges></Clock>\n"	1_PALT_S1_tACS-101-1	74.996	1.0.0.46	1	197710066	Full	3.0.3.80	3.0.3.80	07/04/2022	2022. 07. 04. 16:28:17	18:28:17	3.0.3.82	Keyboard	Keyboard	Keyboard	Keyboard	1	1	1	1	BlockProc3	PROBA				1		4	Keyboard	2	1	1	TrialProc3	Ingerek/proba/2_carrott_truck.bmp	ProbIngerek														rru_proba		
1_PALT_S1_tACS	101	1	"<?xml version=""1.0""?>\n<Clock xmlns:dt=""urn:schemas-microsoft-com:datatypes""><Description dt:dt=""string"">E-Prime Primary Realtime Clock</Description><StartTime><Timestamp dt:dt=""int"">0</Timestamp><DateUtc dt:dt=""string"">2022-07-04T16:28:16Z</DateUtc></StartTime><FrequencyChanges><FrequencyChange><Frequency dt:dt=""r8"">10000000</Frequency><Timestamp dt:dt=""r8"">7834215390527</Timestamp><Current dt:dt=""r8"">0</Current><DateUtc dt:dt=""string"">2022-07-04T16:28:16Z</DateUtc></FrequencyChange></FrequencyChanges></Clock>\n"	1_PALT_S1_tACS-101-1	74.996	1.0.0.46	1	197710066	Full	3.0.3.80	3.0.3.80	07/04/2022	2022. 07. 04. 16:28:17	18:28:17	3.0.3.82	Keyboard	Keyboard	Keyboard	Keyboard	1	1	1	1	BlockProc3	PROBA				2		5	Keyboard	1	1	2	TrialProc3	Ingerek/proba/1_alligator_baby carriage.bmp	ProbIngerek														rre_proba		
1_PALT_S1_tACS	101	1	"<?xml version=""1.0""?>\n<Clock xmlns:dt=""urn:schemas-microsoft-com:datatypes""><Description dt:dt=""string"">E-Prime Primary Realtime Clock</Description><StartTime><Timestamp dt:dt=""int"">0</Timestamp><DateUtc dt:dt=""string"">2022-07-04T16:28:16Z</DateUtc></StartTime><FrequencyChanges><FrequencyChange><Frequency dt:dt=""r8"">10000000</Frequency><Timestamp dt:dt=""r8"">7834215390527</Timestamp><Current dt:dt=""r8"">0</Current><DateUtc dt:dt=""string"">2022-07-04T16:28:16Z</DateUtc></FrequencyChange></FrequencyChanges></Clock>\n"	1_PALT_S1_tACS-101-1	74.996	1.0.0.46	1	197710066	Full	3.0.3.80	3.0.3.80	07/04/2022	2022. 07. 04. 16:28:17	18:28:17	3.0.3.82	Keyboard	Keyboard	Keyboard	Keyboard	1	1	1	1	BlockProc3	PROBA				3		1	Keyboard	5	1	3	TrialProc3	Ingerek/proba/5_chicken_bicycle.bmp	ProbIngerek														uu_proba		
1_PALT_S1_tACS	101	1	"<?xml version=""1.0""?>\n<Clock xmlns:dt=""urn:schemas-microsoft-com:datatypes""><Description dt:dt=""string"">E-Prime Primary Realtime Clock</Description><StartTime><Timestamp dt:dt=""int"">0</Timestamp><DateUtc dt:dt=""string"">2022-07-04T16:28:16Z</DateUtc></StartTime><FrequencyChanges><FrequencyChange><Frequency dt:dt=""r8"">10000000</Frequency><Timestamp dt:dt=""r8"">7834215390527</Timestamp><Current dt:dt=""r8"">0</Current><DateUtc dt:dt=""string"">2022-07-04T16:28:16Z</DateUtc></FrequencyChange></FrequencyChanges></Clock>\n"	1_PALT_S1_tACS-101-1	74.996	1.0.0.46	1	197710066	Full	3.0.3.80	3.0.3.80	07/04/2022	2022. 07. 04. 16:28:17	18:28:17	3.0.3.82	Keyboard	Keyboard	Keyboard	Keyboard	1	1	1	1	BlockProc3	PROBA				4		2	Keyboard	3	1	4	TrialProc3	Ingerek/proba/3_mouse_duck.bmp	ProbIngerek														ru_proba		
1_PALT_S1_tACS	101	1	"<?xml version=""1.0""?>\n<Clock xmlns:dt=""urn:schemas-microsoft-com:datatypes""><Description dt:dt=""string"">E-Prime Primary Realtime Clock</Description><StartTime><Timestamp dt:dt=""int"">0</Timestamp><DateUtc dt:dt=""string"">2022-07-04T16:28:16Z</DateUtc></StartTime><FrequencyChanges><FrequencyChange><Frequency dt:dt=""r8"">10000000</Frequency><Timestamp dt:dt=""r8"">7834215390527</Timestamp><Current dt:dt=""r8"">0</Current><DateUtc dt:dt=""string"">2022-07-04T16:28:16Z</DateUtc></FrequencyChange></FrequencyChanges></Clock>\n"	1_PALT_S1_tACS-101-1	74.996	1.0.0.46	1	197710066	Full	3.0.3.80	3.0.3.80	07/04/2022	2022. 07. 04. 16:28:17	18:28:17	3.0.3.82	Keyboard	Keyboard	Keyboard	Keyboard	1	1	1	1	BlockProc3	PROBA				5		3	Keyboard	4	1	5	TrialProc3	Ingerek/proba/4_pencil_top.bmp	ProbIngerek														ur_proba		
1_PALT_S1_tACS	101	1	"<?xml version=""1.0""?>\n<Clock xmlns:dt=""urn:schemas-microsoft-com:datatypes""><Description dt:dt=""string"">E-Prime Primary Realtime Clock</Description><StartTime><Timestamp dt:dt=""int"">0</Timestamp><DateUtc dt:dt=""string"">2022-07-04T16:28:16Z</DateUtc></StartTime><FrequencyChanges><FrequencyChange><Frequency dt:dt=""r8"">10000000</Frequency><Timestamp dt:dt=""r8"">7834215390527</Timestamp><Current dt:dt=""r8"">0</Current><DateUtc dt:dt=""string"">2022-07-04T16:28:16Z</DateUtc></FrequencyChange></FrequencyChanges></Clock>\n"	1_PALT_S1_tACS-101-1	74.996	1.0.0.46	1	197710066	Full	3.0.3.80	3.0.3.80	07/04/2022	2022. 07. 04. 16:28:17	18:28:17	3.0.3.82	Keyboard	Keyboard	Keyboard	Keyboard	2				BlockProc2	TESZT	1	1	1	1	5						TrialProc2		TesztIngerek	1	5	Keyboard	-999999	20	84195	0	5	4684	88879	10	1	1		rre	Ingerek/teszt/4_fox_clock.bmp
1_PALT_S1_tACS	101	1	"<?xml version=""1.0""?>\n<Clock xmlns:dt=""urn:schemas-microsoft-com:datatypes""><Description dt:dt=""string"">E-Prime Primary Realtime Clock</Description><StartTime><Timestamp dt:dt=""int"">0</Timestamp><DateUtc dt:dt=""string"">2022-07-04T16:28:16Z</DateUtc></StartTime><FrequencyChanges><FrequencyChange><Frequency dt:dt=""r8"">10000000</Frequency><Timestamp dt:dt=""r8"">7834215390527</Timestamp><Current dt:dt=""r8"">0</Current><DateUtc dt:dt=""string"">2022-07-04T16:28:16Z</DateUtc></FrequencyChange></FrequencyChanges></Clock>\n"	1_PALT_S1_tACS-101-1	74.996	1.0.0.46	1	197710066	Full	3.0.3.80	3.0.3.80	07/04/2022	2022. 07. 04. 16:28:17	18:28:17	3.0.3.82	Keyboard	Keyboard	Keyboard	Keyboard	2				BlockProc2	TESZT	1	1	1	2	4						TrialProc2		TesztIngerek	0	4	Keyboard	-999999	20	89409	0	5	3958	93367	4	1	2		rru	Ingerek/teszt/10_lobster_ladder.bmp
1_PALT_S1_tACS	101	1	"<?xml version=""1.0""?>\n<Clock xmlns:dt=""urn:schemas-microsoft-com:datatypes""><Description dt:dt=""string"">E-Prime Primary Realtime Clock</Description><StartTime><Timestamp dt:dt=""int"">0</Timestamp><DateUtc dt:dt=""string"">2022-07-04T16:28:16Z</DateUtc></StartTime><FrequencyChanges><FrequencyChange><Frequency dt:dt=""r8"">10000000</Frequency><Timestamp dt:dt=""r8"">7834215390527</Timestamp><Current dt:dt=""r8"">0</Current><DateUtc dt:dt=""string"">2022-07-04T16:28:16Z</DateUtc></FrequencyChange></FrequencyChanges></Clock>\n"	1_PALT_S1_tACS-101-1	74.996	1.0.0.46	1	197710066	Full	3.0.3.80	3.0.3.80	07/04/2022	2022. 07. 04. 16:28:17	18:28:17	3.0.3.82	Keyboard	Keyboard	Keyboard	Keyboard	2				BlockProc2	TESZT	1	1	1	3	1						TrialProc2		TesztIngerek	1	1	Keyboard	-999999	21	93903	0	1	2536	96439	7	1	3		uu	Ingerek/teszt/25_beetle_bus.bmp
1_PALT_S1_tACS	101	1	"<?xml version=""1.0""?>\n<Clock xmlns:dt=""urn:schemas-microsoft-com:datatypes""><Description dt:dt=""string"">E-Prime Primary Realtime Clock</Description><StartTime><Timestamp dt:dt=""int"">0</Timestamp><DateUtc dt:dt=""string"">2022-07-04T16:28:16Z</DateUtc></StartTime><FrequencyChanges><FrequencyChange><Frequency dt:dt=""r8"">10000000</Frequency><Timestamp dt:dt=""r8"">7834215390527</Timestamp><Current dt:dt=""r8"">0</Current><DateUtc dt:dt=""string"">2022-07-04T16:28:16Z</DateUtc></FrequencyChange></FrequencyChanges></Clock>\n"	1_PALT_S1_tACS-101-1	74.996	1.0.0.46	1	197710066	Full	3.0.3.80	3.0.3.80	07/04/2022	2022. 07. 04. 16:28:17	18:28:17	3.0.3.82	Keyboard	Keyboard	Keyboard	Keyboard	2				BlockProc2	TESZT	1	1	1	4	5						TrialProc2		TesztIngerek	1	5	Keyboard	-999999	20	96969	0	5	4902	101871	1	1	4		rre	Ingerek/teszt/1_bee_ball.bmp
1_PALT_S1_tACS	101	1	"<?xml version=""1.0""?>\n<Clock xmlns:dt=""urn:schemas-microsoft-com:datatypes""><Description dt:dt=""string"">E-Prime Primary Realtime Clock</Description><StartTime><Timestamp dt:dt=""int"">0</Timestamp><DateUtc dt:dt=""string"">2022-07-04T16:28:16Z</DateUtc></StartTime><FrequencyChanges><FrequencyChange><Frequency dt:dt=""r8"">10000000</Frequency><Timestamp dt:dt=""r8"">7834215390527</Timestamp><Current dt:dt=""r8"">0</Current><DateUtc dt:dt=""string"">2022-07-04T16:28:16Z</DateUtc></FrequencyChange></FrequencyChanges></Clock>\n"	1_PALT_S1_tACS-101-1	74.996	1.0.0.46	1	197710066	Full	3.0.3.80	3.0.3.80	07/04/2022	2022. 07. 04. 16:28:17	18:28:17	3.0.3.82	Keyboard	Keyboard	Keyboard	Keyboard	2				BlockProc2	TESZT	1	1	1	5	1						TrialProc2		TesztIngerek	1	1	Keyboard	-999999	20	102410	0	1	3469	105879	23	1	5		uu	Ingerek/teszt/29_fly_cup.bmp
1_PALT_S1_tACS	101	1	"<?xml version=""1.0""?>\n<Clock xmlns:dt=""urn:schemas-microsoft-com:datatypes""><Description dt:dt=""string"">E-Prime Primary Realtime Clock</Description><StartTime><Timestamp dt:dt=""int"">0</Timestamp><DateUtc dt:dt=""string"">2022-07-04T16:28:16Z</DateUtc></StartTime><FrequencyChanges><FrequencyChange><Frequency dt:dt=""r8"">10000000</Frequency><Timestamp dt:dt=""r8"">7834215390527</Timestamp><Current dt:dt=""r8"">0</Current><DateUtc dt:dt=""string"">2022-07-04T16:28:16Z</DateUtc></FrequencyChange></FrequencyChanges></Clock>\n"	1_PALT_S1_tACS-101-1	74.996	1.0.0.46	1	197710066	Full	3.0.3.80	3.0.3.80	07/04/2022	2022. 07. 04. 16:28:17	18:28:17	3.0.3.82	Keyboard	Keyboard	Keyboard	Keyboard	2				BlockProc2	TESZT	1	1	1	6	5						TrialProc2		TesztIngerek	1	5	Keyboard	-999999	20	106410	0	5	3429	109839	17	1	6		rre	Ingerek/teszt/5_giraffe_coat.bmp
1_PALT_S1_tACS	101	1	"<?xml version=""1.0""?>\n<Clock xmlns:dt=""urn:schemas-microsoft-com:datatypes""><Description dt:dt=""string"">E-Prime Primary Realtime Clock</Description><StartTime><Timestamp dt:dt=""int"">0</Timestamp><DateUtc dt:dt=""string"">2022-07-04T16:28:16Z</DateUtc></StartTime><FrequencyChanges><FrequencyChange><Frequency dt:dt=""r8"">10000000</Frequency><Timestamp dt:dt=""r8"">7834215390527</Timestamp><Current dt:dt=""r8"">0</Current><DateUtc dt:dt=""string"">2022-07-04T16:28:16Z</DateUtc></FrequencyChange></FrequencyChanges></Clock>\n"	1_PALT_S1_tACS-101-1	74.996	1.0.0.46	1	197710066	Full	3.0.3.80	3.0.3.80	07/04/2022	2022. 07. 04. 16:28:17	18:28:17	3.0.3.82	Keyboard	Keyboard	Keyboard	Keyboard	2				BlockProc2	TESZT	1	1	1	7	1						TrialProc2		TesztIngerek	1	1	Keyboard	-999999	20	110370	0	1	5509	115879	15	1	7		uu	Ingerek/teszt/27_elephant_candel.bmp
1_PALT_S1_tACS	101	1	"<?xml version=""1.0""?>\n<Clock xmlns:dt=""urn:schemas-microsoft-com:datatypes""><Description dt:dt=""string"">E-Prime Primary Realtime Clock</Description><StartTime><Timestamp dt:dt=""int"">0</Timestamp><DateUtc dt:dt=""string"">2022-07-04T16:28:16Z</DateUtc></StartTime><FrequencyChanges><FrequencyChange><Frequency dt:dt=""r8"">10000000</Frequency><Timestamp dt:dt=""r8"">7834215390527</Timestamp><Current dt:dt=""r8"">0</Current><DateUtc dt:dt=""string"">2022-07-04T16:28:16Z</DateUtc></FrequencyChange></FrequencyChanges></Clock>\n"	1_PALT_S1_tACS-101-1	74.996	1.0.0.46	1	197710066	Full	3.0.3.80	3.0.3.80	07/04/2022	2022. 07. 04. 16:28:17	18:28:17	3.0.3.82	Keyboard	Keyboard	Keyboard	Keyboard	2				BlockProc2	TESZT	1	1	1	8	2						TrialProc2		TesztIngerek	0	2	Keyboard	-999999	20	116410	0	1	4237	120647	13	1	8		ru	Ingerek/teszt/18_rooster_knife.bmp
1_PALT_S1_tACS	101	1	"<?xml version=""1.0""?>\n<Clock xmlns:dt=""urn:schemas-microsoft-com:datatypes""><Description dt:dt=""string"">E-Prime Primary Realtime Clock</Description><StartTime><Timestamp dt:dt=""int"">0</Timestamp><DateUtc dt:dt=""string"">2022-07-04T16:28:16Z</DateUtc></StartTime><FrequencyChanges><FrequencyChange><Frequency dt:dt=""r8"">10000000</Frequency><Timestamp dt:dt=""r8"">7834215390527</Timestamp><Current dt:dt=""r8"">0</Current><DateUtc dt:dt=""string"">2022-07-04T16:28:16Z</DateUtc></FrequencyChange></FrequencyChanges></Clock>\n"	1_PALT_S1_tACS-101-1	74.996	1.0.0.46	1	197710066	Full	3.0.3.80	3.0.3.80	07/04/2022	2022. 07. 04. 16:28:17	18:28:17	3.0.3.82	Keyboard	Keyboard	Keyboard	Keyboard	2				BlockProc2	TESZT	1	1	1	9	2						TrialProc2		TesztIngerek	1	2	Keyboard	-999999	20	121184	0	2	3551	124735	21	1	9		ru	Ingerek/teszt/19_seal_rollerskate.bmp
1_PALT_S1_tACS	101	1	"<?xml version=""1.0""?>\n<Clock xmlns:dt=""urn:schemas-microsoft-com:datatypes""><Description dt:dt=""string"">E-Prime Primary Realtime Clock</Description><StartTime><Timestamp dt:dt=""int"">0</Timestamp><DateUtc dt:dt=""string"">2022-07-04T16:28:16Z</DateUtc></StartTime><FrequencyChanges><FrequencyChange><Frequency dt:dt=""r8"">10000000</Frequency><Timestamp dt:dt=""r8"">7834215390527</Timestamp><Current dt:dt=""r8"">0</Current><DateUtc dt:dt=""string"">2022-07-04T16:28:16Z</DateUtc></FrequencyChange></FrequencyChanges></Clock>\n"	1_PALT_S1_tACS-101-1	74.996	1.0.0.46	1	197710066	Full	3.0.3.80	3.0.3.80	07/04/2022	2022. 07. 04. 16:28:17	18:28:17	3.0.3.82	Keyboard	Keyboard	Keyboard	Keyboard	2				BlockProc2	TESZT	1	1	1	10	4						TrialProc2		TesztIngerek	1	4	Keyboard	-999999	20	125264	0	4	5623	130887	11	1	10		rru	Ingerek/teszt/11_monkey_motor.bmp
1_PALT_S1_tACS	101	1	"<?xml version=""1.0""?>\n<Clock xmlns:dt=""urn:schemas-microsoft-com:datatypes""><Description dt:dt=""string"">E-Prime Primary Realtime Clock</Description><StartTime><Timestamp dt:dt=""int"">0</Timestamp><DateUtc dt:dt=""string"">2022-07-04T16:28:16Z</DateUtc></StartTime><FrequencyChanges><FrequencyChange><Frequency dt:dt=""r8"">10000000</Frequency><Timestamp dt:dt=""r8"">7834215390527</Timestamp><Current dt:dt=""r8"">0</Current><DateUtc dt:dt=""string"">2022-07-04T16:28:16Z</DateUtc></FrequencyChange></FrequencyChanges></Clock>\n"	1_PALT_S1_tACS-101-1	74.996	1.0.0.46	1	197710066	Full	3.0.3.80	3.0.3.80	07/04/2022	2022. 07. 04. 16:28:17	18:28:17	3.0.3.82	Keyboard	Keyboard	Keyboard	Keyboard	2				BlockProc2	TESZT	1	1	1	11	5						TrialProc2		TesztIngerek	1	5	Keyboard	-999999	20	131424	0	5	4607	136031	9	1	11		rre	Ingerek/teszt/3_donkey_bowl.bmp
1_PALT_S1_tACS	101	1	"<?xml version=""1.0""?>\n<Clock xmlns:dt=""urn:schemas-microsoft-com:datatypes""><Description dt:dt=""string"">E-Prime Primary Realtime Clock</Description><StartTime><Timestamp dt:dt=""int"">0</Timestamp><DateUtc dt:dt=""string"">2022-07-04T16:28:16Z</DateUtc></StartTime><FrequencyChanges><FrequencyChange><Frequency dt:dt=""r8"">10000000</Frequency><Timestamp dt:dt=""r8"">7834215390527</Timestamp><Current dt:dt=""r8"">0</Current><DateUtc dt:dt=""string"">2022-07-04T16:28:16Z</DateUtc></FrequencyChange></FrequencyChanges></Clock>\n"	1_PALT_S1_tACS-101-1	74.996	1.0.0.46	1	197710066	Full	3.0.3.80	3.0.3.80	07/04/2022	2022. 07. 04. 16:28:17	18:28:17	3.0.3.82	Keyboard	Keyboard	Keyboard	Keyboard	2				BlockProc2	TESZT	1	1	1	12	1						TrialProc2		TesztIngerek	1	1	Keyboard	-999999	20	136558	0	1	3481	140039	24	1	12		uu	Ingerek/teszt/30_leopard_garbage can.bmp
1_PALT_S1_tACS	101	1	"<?xml version=""1.0""?>\n<Clock xmlns:dt=""urn:schemas-microsoft-com:datatypes""><Description dt:dt=""string"">E-Prime Primary Realtime Clock</Description><StartTime><Timestamp dt:dt=""int"">0</Timestamp><DateUtc dt:dt=""string"">2022-07-04T16:28:16Z</DateUtc></StartTime><FrequencyChanges><FrequencyChange><Frequency dt:dt=""r8"">10000000</Frequency><Timestamp dt:dt=""r8"">7834215390527</Timestamp><Current dt:dt=""r8"">0</Current><DateUtc dt:dt=""string"">2022-07-04T16:28:16Z</DateUtc></FrequencyChange></FrequencyChanges></Clock>\n"	1_PALT_S1_tACS-101-1	74.996	1.0.0.46	1	197710066	Full	3.0.3.80	3.0.3.80	07/04/2022	2022. 07. 04. 16:28:17	18:28:17	3.0.3.82	Keyboard	Keyboard	Keyboard	Keyboard	2				BlockProc2	TESZT	1	1	1	13	4						TrialProc2		TesztIngerek	0	4	Keyboard	-999999	20	140571	0	5	7876	148447	20	1	13		rru	Ingerek/teszt/14_spider_shoe.bmp
1_PALT_S1_tACS	101	1	"<?xml version=""1.0""?>\n<Clock xmlns:dt=""urn:schemas-microsoft-com:datatypes""><Description dt:dt=""string"">E-Prime Primary Realtime Clock</Description><StartTime><Timestamp dt:dt=""int"">0</Timestamp><DateUtc dt:dt=""string"">2022-07-04T16:28:16Z</DateUtc></StartTime><FrequencyChanges><FrequencyChange><Frequency dt:dt=""r8"">10000000</Frequency><Timestamp dt:dt=""r8"">7834215390527</Timestamp><Current dt:dt=""r8"">0</Current><DateUtc dt:dt=""string"">2022-07-04T16:28:16Z</DateUtc></FrequencyChange></FrequencyChanges></Clock>\n"	1_PALT_S1_tACS-101-1	74.996	1.0.0.46	1	197710066	Full	3.0.3.80	3.0.3.80	07/04/2022	2022. 07. 04. 16:28:17	18:28:17	3.0.3.82	Keyboard	Keyboard	Keyboard	Keyboard	2				BlockProc2	TESZT	1	1	1	14	4						TrialProc2		TesztIngerek	0	4	Keyboard	-999999	20	148985	0	5	3862	152847	19	1	14		rru	Ingerek/teszt/13_pig_sailboat.bmp
1_PALT_S1_tACS	101	1	"<?xml version=""1.0""?>\n<Clock xmlns:dt=""urn:schemas-microsoft-com:datatypes""><Description dt:dt=""string"">E-Prime Primary Realtime Clock</Description><StartTime><Timestamp dt:dt=""int"">0</Timestamp><DateUtc dt:dt=""string"">2022-07-04T16:28:16Z</DateUtc></StartTime><FrequencyChanges><FrequencyChange><Frequency dt:dt=""r8"">10000000</Frequency><Timestamp dt:dt=""r8"">7834215390527</Timestamp><Current dt:dt=""r8"">0</Current><DateUtc dt:dt=""string"">2022-07-04T16:28:16Z</DateUtc></FrequencyChange></FrequencyChanges></Clock>\n"	1_PALT_S1_tACS-101-1	74.996	1.0.0.46	1	197710066	Full	3.0.3.80	3.0.3.80	07/04/2022	2022. 07. 04. 16:28:17	18:28:17	3.0.3.82	Keyboard	Keyboard	Keyboard	Keyboard	2				BlockProc2	TESZT	1	1	1	15	5						TrialProc2		TesztIngerek	1	5	Keyboard	-999999	20	153385	0	5	3190	156575	18	1	15		rre	Ingerek/teszt/6_gorilla_desk.bmp
1_PALT_S1_tACS	101	1	"<?xml version=""1.0""?>\n<Clock xmlns:dt=""urn:schemas-microsoft-com:datatypes""><Description dt:dt=""string"">E-Prime Primary Realtime Clock</Description><StartTime><Timestamp dt:dt=""int"">0</Timestamp><DateUtc dt:dt=""string"">2022-07-04T16:28:16Z</DateUtc></StartTime><FrequencyChanges><FrequencyChange><Frequency dt:dt=""r8"">10000000</Frequency><Timestamp dt:dt=""r8"">7834215390527</Timestamp><Current dt:dt=""r8"">0</Current><DateUtc dt:dt=""string"">2022-07-04T16:28:16Z</DateUtc></FrequencyChange></FrequencyChanges></Clock>\n"	1_PALT_S1_tACS-101-1	74.996	1.0.0.46	1	197710066	Full	3.0.3.80	3.0.3.80	07/04/2022	2022. 07. 04. 16:28:17	18:28:17	3.0.3.82	Keyboard	Keyboard	Keyboard	Keyboard	2				BlockProc2	TESZT	1	1	1	16	1						TrialProc2		TesztIngerek	1	1	Keyboard	-999999	21	157106	0	1	3037	160143	16	1	16		uu	Ingerek/teszt/28_horse_couch.bmp
1_PALT_S1_tACS	101	1	"<?xml version=""1.0""?>\n<Clock xmlns:dt=""urn:schemas-microsoft-com:datatypes""><Description dt:dt=""string"">E-Prime Primary Realtime Clock</Description><StartTime><Timestamp dt:dt=""int"">0</Timestamp><DateUtc dt:dt=""string"">2022-07-04T16:28:16Z</DateUtc></StartTime><FrequencyChanges><FrequencyChange><Frequency dt:dt=""r8"">10000000</Frequency><Timestamp dt:dt=""r8"">7834215390527</Timestamp><Current dt:dt=""r8"">0</Current><DateUtc dt:dt=""string"">2022-07-04T16:28:16Z</DateUtc></FrequencyChange></FrequencyChanges></Clock>\n"	1_PALT_S1_tACS-101-1	74.996	1.0.0.46	1	197710066	Full	3.0.3.80	3.0.3.80	07/04/2022	2022. 07. 04. 16:28:17	18:28:17	3.0.3.82	Keyboard	Keyboard	Keyboard	Keyboard	2				BlockProc2	TESZT	1	1	1	17	3						TrialProc2		TesztIngerek	1	3	Keyboard	-999999	20	160679	0	3	4320	164999	6	1	17		ur	Ingerek/teszt/21_swan_television.bmp
1_PALT_S1_tACS	101	1	"<?xml version=""1.0""?>\n<Clock xmlns:dt=""urn:schemas-microsoft-com:datatypes""><Description dt:dt=""string"">E-Prime Primary Realtime Clock</Description><StartTime><Timestamp dt:dt=""int"">0</Timestamp><DateUtc dt:dt=""string"">2022-07-04T16:28:16Z</DateUtc></StartTime><FrequencyChanges><FrequencyChange><Frequency dt:dt=""r8"">10000000</Frequency><Timestamp dt:dt=""r8"">7834215390527</Timestamp><Current dt:dt=""r8"">0</Current><DateUtc dt:dt=""string"">2022-07-04T16:28:16Z</DateUtc></FrequencyChange></FrequencyChanges></Clock>\n"	1_PALT_S1_tACS-101-1	74.996	1.0.0.46	1	197710066	Full	3.0.3.80	3.0.3.80	07/04/2022	2022. 07. 04. 16:28:17	18:28:17	3.0.3.82	Keyboard	Keyboard	Keyboard	Keyboard	2				BlockProc2	TESZT	1	1	1	18	1						TrialProc2		TesztIngerek	1	1	Keyboard	-999999	20	165533	0	1	3002	168535	8	1	18		uu	Ingerek/teszt/26_butterfly_chair.bmp
1_PALT_S1_tACS	101	1	"<?xml version=""1.0""?>\n<Clock xmlns:dt=""urn:schemas-microsoft-com:datatypes""><Description dt:dt=""string"">E-Prime Primary Realtime Clock</Description><StartTime><Timestamp dt:dt=""int"">0</Timestamp><DateUtc dt:dt=""string"">2022-07-04T16:28:16Z</DateUtc></StartTime><FrequencyChanges><FrequencyChange><Frequency dt:dt=""r8"">10000000</Frequency><Timestamp dt:dt=""r8"">7834215390527</Timestamp><Current dt:dt=""r8"">0</Current><DateUtc dt:dt=""string"">2022-07-04T16:28:16Z</DateUtc></FrequencyChange></FrequencyChanges></Clock>\n"	1_PALT_S1_tACS-101-1	74.996	1.0.0.46	1	197710066	Full	3.0.3.80	3.0.3.80	07/04/2022	2022. 07. 04. 16:28:17	18:28:17	3.0.3.82	Keyboard	Keyboard	Keyboard	Keyboard	2				BlockProc2	TESZT	1	1	1	19	4						TrialProc2		TesztIngerek	1	4	Keyboard	-999999	20	169066	0	4	6525	175591	12	1	19		rru	Ingerek/teszt/12_peacock_rollingpin.bmp
1_PALT_S1_tACS	101	1	"<?xml version=""1.0""?>\n<Clock xmlns:dt=""urn:schemas-microsoft-com:datatypes""><Description dt:dt=""string"">E-Prime Primary Realtime Clock</Description><StartTime><Timestamp dt:dt=""int"">0</Timestamp><DateUtc dt:dt=""string"">2022-07-04T16:28:16Z</DateUtc></StartTime><FrequencyChanges><FrequencyChange><Frequency dt:dt=""r8"">10000000</Frequency><Timestamp dt:dt=""r8"">7834215390527</Timestamp><Current dt:dt=""r8"">0</Current><DateUtc dt:dt=""string"">2022-07-04T16:28:16Z</DateUtc></FrequencyChange></FrequencyChanges></Clock>\n"	1_PALT_S1_tACS-101-1	74.996	1.0.0.46	1	197710066	Full	3.0.3.80	3.0.3.80	07/04/2022	2022. 07. 04. 16:28:17	18:28:17	3.0.3.82	Keyboard	Keyboard	Keyboard	Keyboard	2				BlockProc2	TESZT	1	1	1	20	5						TrialProc2		TesztIngerek	1	5	Keyboard	-999999	20	176120	0	5	3487	179607	2	1	20		rre	Ingerek/teszt/2_cat_baseballb.bmp
1_PALT_S1_tACS	101	1	"<?xml version=""1.0""?>\n<Clock xmlns:dt=""urn:schemas-microsoft-com:datatypes""><Description dt:dt=""string"">E-Prime Primary Realtime Clock</Description><StartTime><Timestamp dt:dt=""int"">0</Timestamp><DateUtc dt:dt=""string"">2022-07-04T16:28:16Z</DateUtc></StartTime><FrequencyChanges><FrequencyChange><Frequency dt:dt=""r8"">10000000</Frequency><Timestamp dt:dt=""r8"">7834215390527</Timestamp><Current dt:dt=""r8"">0</Current><DateUtc dt:dt=""string"">2022-07-04T16:28:16Z</DateUtc></FrequencyChange></FrequencyChanges></Clock>\n"	1_PALT_S1_tACS-101-1	74.996	1.0.0.46	1	197710066	Full	3.0.3.80	3.0.3.80	07/04/2022	2022. 07. 04. 16:28:17	18:28:17	3.0.3.82	Keyboard	Keyboard	Keyboard	Keyboard	2				BlockProc2	TESZT	1	1	1	21	4						TrialProc2		TesztIngerek	1	4	Keyboard	-999999	20	180133	0	4	12570	192703	3	1	21		rru	Ingerek/teszt/9_lion_kettle.bmp
1_PALT_S1_tACS	101	1	"<?xml version=""1.0""?>\n<Clock xmlns:dt=""urn:schemas-microsoft-com:datatypes""><Description dt:dt=""string"">E-Prime Primary Realtime Clock</Description><StartTime><Timestamp dt:dt=""int"">0</Timestamp><DateUtc dt:dt=""string"">2022-07-04T16:28:16Z</DateUtc></StartTime><FrequencyChanges><FrequencyChange><Frequency dt:dt=""r8"">10000000</Frequency><Timestamp dt:dt=""r8"">7834215390527</Timestamp><Current dt:dt=""r8"">0</Current><DateUtc dt:dt=""string"">2022-07-04T16:28:16Z</DateUtc></FrequencyChange></FrequencyChanges></Clock>\n"	1_PALT_S1_tACS-101-1	74.996	1.0.0.46	1	197710066	Full	3.0.3.80	3.0.3.80	07/04/2022	2022. 07. 04. 16:28:17	18:28:17	3.0.3.82	Keyboard	Keyboard	Keyboard	Keyboard	2				BlockProc2	TESZT	1	1	1	22	2						TrialProc2		TesztIngerek	0	2	Keyboard	-999999	20	193241	0	5	7646	200887	5	1	22		ru	Ingerek/teszt/17_rhino_hat.bmp
1_PALT_S1_tACS	101	1	"<?xml version=""1.0""?>\n<Clock xmlns:dt=""urn:schemas-microsoft-com:datatypes""><Description dt:dt=""string"">E-Prime Primary Realtime Clock</Description><StartTime><Timestamp dt:dt=""int"">0</Timestamp><DateUtc dt:dt=""string"">2022-07-04T16:28:16Z</DateUtc></StartTime><FrequencyChanges><FrequencyChange><Frequency dt:dt=""r8"">10000000</Frequency><Timestamp dt:dt=""r8"">7834215390527</Timestamp><Current dt:dt=""r8"">0</Current><DateUtc dt:dt=""string"">2022-07-04T16:28:16Z</DateUtc></FrequencyChange></FrequencyChanges></Clock>\n"	1_PALT_S1_tACS-101-1	74.996	1.0.0.46	1	197710066	Full	3.0.3.80	3.0.3.80	07/04/2022	2022. 07. 04. 16:28:17	18:28:17	3.0.3.82	Keyboard	Keyboard	Keyboard	Keyboard	2				BlockProc2	TESZT	1	1	1	23	3						TrialProc2		TesztIngerek	1	3	Keyboard	-999999	20	201414	0	3	5409	206823	22	1	23		ur	Ingerek/teszt/23_tiger_windmill.bmp
1_PALT_S1_tACS	101	1	"<?xml version=""1.0""?>\n<Clock xmlns:dt=""urn:schemas-microsoft-com:datatypes""><Description dt:dt=""string"">E-Prime Primary Realtime Clock</Description><StartTime><Timestamp dt:dt=""int"">0</Timestamp><DateUtc dt:dt=""string"">2022-07-04T16:28:16Z</DateUtc></StartTime><FrequencyChanges><FrequencyChange><Frequency dt:dt=""r8"">10000000</Frequency><Timestamp dt:dt=""r8"">7834215390527</Timestamp><Current dt:dt=""r8"">0</Current><DateUtc dt:dt=""string"">2022-07-04T16:28:16Z</DateUtc></FrequencyChange></FrequencyChanges></Clock>\n"	1_PALT_S1_tACS-101-1	74.996	1.0.0.46	1	197710066	Full	3.0.3.80	3.0.3.80	07/04/2022	2022. 07. 04. 16:28:17	18:28:17	3.0.3.82	Keyboard	Keyboard	Keyboard	Keyboard	2				BlockProc2	TESZT	1	1	1	24	3						TrialProc2		TesztIngerek	1	3	Keyboard	-999999	20	207361	0	3	3110	210471	14	1	24		ur	Ingerek/teszt/22_sheep_vest.bmp
1_PALT_S1_tACS	102	1	"<?xml version=""1.0""?>\n<Clock xmlns:dt=""urn:schemas-microsoft-com:datatypes""><Description dt:dt=""string"">E-Prime Primary Realtime Clock</Description><StartTime><Timestamp dt:dt=""int"">0</Timestamp><DateUtc dt:dt=""string"">2022-07-08T16:17:10Z</DateUtc></StartTime><FrequencyChanges><FrequencyChange><Frequency dt:dt=""r8"">10000000</Frequency><Timestamp dt:dt=""r8"">11283715441731</Timestamp><Current dt:dt=""r8"">0</Current><DateUtc dt:dt=""string"">2022-07-08T16:17:10Z</DateUtc></FrequencyChange></FrequencyChanges></Clock>\n"	1_PALT_S1_tACS-102-1	74.989	1.0.0.46	1	839041647	Full	3.0.3.80	3.0.3.80	07/08/2022	2022. 07. 08. 16:17:10	18:17:10	3.0.3.82	Keyboard	Keyboard	Keyboard	Keyboard	1	1	1	1	BlockProc3	PROBA				1		1	Keyboard	5	1	1	TrialProc3	Ingerek/proba/5_chicken_bicycle.bmp	ProbIngerek														uu_proba		
1_PALT_S1_tACS	102	1	"<?xml version=""1.0""?>\n<Clock xmlns:dt=""urn:schemas-microsoft-com:datatypes""><Description dt:dt=""string"">E-Prime Primary Realtime Clock</Description><StartTime><Timestamp dt:dt=""int"">0</Timestamp><DateUtc dt:dt=""string"">2022-07-08T16:17:10Z</DateUtc></StartTime><FrequencyChanges><FrequencyChange><Frequency dt:dt=""r8"">10000000</Frequency><Timestamp dt:dt=""r8"">11283715441731</Timestamp><Current dt:dt=""r8"">0</Current><DateUtc dt:dt=""string"">2022-07-08T16:17:10Z</DateUtc></FrequencyChange></FrequencyChanges></Clock>\n"	1_PALT_S1_tACS-102-1	74.989	1.0.0.46	1	839041647	Full	3.0.3.80	3.0.3.80	07/08/2022	2022. 07. 08. 16:17:10	18:17:10	3.0.3.82	Keyboard	Keyboard	Keyboard	Keyboard	1	1	1	1	BlockProc3	PROBA				2		2	Keyboard	3	1	2	TrialProc3	Ingerek/proba/3_mouse_duck.bmp	ProbIngerek														ru_proba		
1_PALT_S1_tACS	102	1	"<?xml version=""1.0""?>\n<Clock xmlns:dt=""urn:schemas-microsoft-com:datatypes""><Description dt:dt=""string"">E-Prime Primary Realtime Clock</Description><StartTime><Timestamp dt:dt=""int"">0</Timestamp><DateUtc dt:dt=""string"">2022-07-08T16:17:10Z</DateUtc></StartTime><FrequencyChanges><FrequencyChange><Frequency dt:dt=""r8"">10000000</Frequency><Timestamp dt:dt=""r8"">11283715441731</Timestamp><Current dt:dt=""r8"">0</Current><DateUtc dt:dt=""string"">2022-07-08T16:17:10Z</DateUtc></FrequencyChange></FrequencyChanges></Clock>\n"	1_PALT_S1_tACS-102-1	74.989	1.0.0.46	1	839041647	Full	3.0.3.80	3.0.3.80	07/08/2022	2022. 07. 08. 16:17:10	18:17:10	3.0.3.82	Keyboard	Keyboard	Keyboard	Keyboard	1	1	1	1	BlockProc3	PROBA				3		4	Keyboard	2	1	3	TrialProc3	Ingerek/proba/2_carrott_truck.bmp	ProbIngerek														rru_proba		
1_PALT_S1_tACS	102	1	"<?xml version=""1.0""?>\n<Clock xmlns:dt=""urn:schemas-microsoft-com:datatypes""><Description dt:dt=""string"">E-Prime Primary Realtime Clock</Description><StartTime><Timestamp dt:dt=""int"">0</Timestamp><DateUtc dt:dt=""string"">2022-07-08T16:17:10Z</DateUtc></StartTime><FrequencyChanges><FrequencyChange><Frequency dt:dt=""r8"">10000000</Frequency><Timestamp dt:dt=""r8"">11283715441731</Timestamp><Current dt:dt=""r8"">0</Current><DateUtc dt:dt=""string"">2022-07-08T16:17:10Z</DateUtc></FrequencyChange></FrequencyChanges></Clock>\n"	1_PALT_S1_tACS-102-1	74.989	1.0.0.46	1	839041647	Full	3.0.3.80	3.0.3.80	07/08/2022	2022. 07. 08. 16:17:10	18:17:10	3.0.3.82	Keyboard	Keyboard	Keyboard	Keyboard	1	1	1	1	BlockProc3	PROBA				4		3	Keyboard	4	1	4	TrialProc3	Ingerek/proba/4_pencil_top.bmp	ProbIngerek														ur_proba		
1_PALT_S1_tACS	102	1	"<?xml version=""1.0""?>\n<Clock xmlns:dt=""urn:schemas-microsoft-com:datatypes""><Description dt:dt=""string"">E-Prime Primary Realtime Clock</Description><StartTime><Timestamp dt:dt=""int"">0</Timestamp><DateUtc dt:dt=""string"">2022-07-08T16:17:10Z</DateUtc></StartTime><FrequencyChanges><FrequencyChange><Frequency dt:dt=""r8"">10000000</Frequency><Timestamp dt:dt=""r8"">11283715441731</Timestamp><Current dt:dt=""r8"">0</Current><DateUtc dt:dt=""string"">2022-07-08T16:17:10Z</DateUtc></FrequencyChange></FrequencyChanges></Clock>\n"	1_PALT_S1_tACS-102-1	74.989	1.0.0.46	1	839041647	Full	3.0.3.80	3.0.3.80	07/08/2022	2022. 07. 08. 16:17:10	18:17:10	3.0.3.82	Keyboard	Keyboard	Keyboard	Keyboard	1	1	1	1	BlockProc3	PROBA				5		5	Keyboard	1	1	5	TrialProc3	Ingerek/proba/1_alligator_baby carriage.bmp	ProbIngerek														rre_proba		
1_PALT_S1_tACS	102	1	"<?xml version=""1.0""?>\n<Clock xmlns:dt=""urn:schemas-microsoft-com:datatypes""><Description dt:dt=""string"">E-Prime Primary Realtime Clock</Description><StartTime><Timestamp dt:dt=""int"">0</Timestamp><DateUtc dt:dt=""string"">2022-07-08T16:17:10Z</DateUtc></StartTime><FrequencyChanges><FrequencyChange><Frequency dt:dt=""r8"">10000000</Frequency><Timestamp dt:dt=""r8"">11283715441731</Timestamp><Current dt:dt=""r8"">0</Current><DateUtc dt:dt=""string"">2022-07-08T16:17:10Z</DateUtc></FrequencyChange></FrequencyChanges></Clock>\n"	1_PALT_S1_tACS-102-1	74.989	1.0.0.46	1	839041647	Full	3.0.3.80	3.0.3.80	07/08/2022	2022. 07. 08. 16:17:10	18:17:10	3.0.3.82	Keyboard	Keyboard	Keyboard	Keyboard	2				BlockProc2	TESZT	1	1	1	1	5						TrialProc2		TesztIngerek	0	5	Keyboard	-999999	20	67589	0	4	3552	71141	1	1	1		rre	Ingerek/teszt/1_bee_ball.bmp
1_PALT_S1_tACS	102	1	"<?xml version=""1.0""?>\n<Clock xmlns:dt=""urn:schemas-microsoft-com:datatypes""><Description dt:dt=""string"">E-Prime Primary Realtime Clock</Description><StartTime><Timestamp dt:dt=""int"">0</Timestamp><DateUtc dt:dt=""string"">2022-07-08T16:17:10Z</DateUtc></StartTime><FrequencyChanges><FrequencyChange><Frequency dt:dt=""r8"">10000000</Frequency><Timestamp dt:dt=""r8"">11283715441731</Timestamp><Current dt:dt=""r8"">0</Current><DateUtc dt:dt=""string"">2022-07-08T16:17:10Z</DateUtc></FrequencyChange></FrequencyChanges></Clock>\n"	1_PALT_S1_tACS-102-1	74.989	1.0.0.46	1	839041647	Full	3.0.3.80	3.0.3.80	07/08/2022	2022. 07. 08. 16:17:10	18:17:10	3.0.3.82	Keyboard	Keyboard	Keyboard	Keyboard	2				BlockProc2	TESZT	1	1	1	2	5						TrialProc2		TesztIngerek	1	5	Keyboard	-999999	20	71669	0	5	3456	75125	18	1	2		rre	Ingerek/teszt/6_gorilla_desk.bmp
1_PALT_S1_tACS	102	1	"<?xml version=""1.0""?>\n<Clock xmlns:dt=""urn:schemas-microsoft-com:datatypes""><Description dt:dt=""string"">E-Prime Primary Realtime Clock</Description><StartTime><Timestamp dt:dt=""int"">0</Timestamp><DateUtc dt:dt=""string"">2022-07-08T16:17:10Z</DateUtc></StartTime><FrequencyChanges><FrequencyChange><Frequency dt:dt=""r8"">10000000</Frequency><Timestamp dt:dt=""r8"">11283715441731</Timestamp><Current dt:dt=""r8"">0</Current><DateUtc dt:dt=""string"">2022-07-08T16:17:10Z</DateUtc></FrequencyChange></FrequencyChanges></Clock>\n"	1_PALT_S1_tACS-102-1	74.989	1.0.0.46	1	839041647	Full	3.0.3.80	3.0.3.80	07/08/2022	2022. 07. 08. 16:17:10	18:17:10	3.0.3.82	Keyboard	Keyboard	Keyboard	Keyboard	2				BlockProc2	TESZT	1	1	1	3	1						TrialProc2		TesztIngerek	1	1	Keyboard	-999999	20	75656	0	1	3981	79637	7	1	3		uu	Ingerek/teszt/25_beetle_bus.bmp
1_PALT_S1_tACS	102	1	"<?xml version=""1.0""?>\n<Clock xmlns:dt=""urn:schemas-microsoft-com:datatypes""><Description dt:dt=""string"">E-Prime Primary Realtime Clock</Description><StartTime><Timestamp dt:dt=""int"">0</Timestamp><DateUtc dt:dt=""string"">2022-07-08T16:17:10Z</DateUtc></StartTime><FrequencyChanges><FrequencyChange><Frequency dt:dt=""r8"">10000000</Frequency><Timestamp dt:dt=""r8"">11283715441731</Timestamp><Current dt:dt=""r8"">0</Current><DateUtc dt:dt=""string"">2022-07-08T16:17:10Z</DateUtc></FrequencyChange></FrequencyChanges></Clock>\n"	1_PALT_S1_tACS-102-1	74.989	1.0.0.46	1	839041647	Full	3.0.3.80	3.0.3.80	07/08/2022	2022. 07. 08. 16:17:10	18:17:10	3.0.3.82	Keyboard	Keyboard	Keyboard	Keyboard	2				BlockProc2	TESZT	1	1	1	4	5						TrialProc2		TesztIngerek	1	5	Keyboard	-999999	20	80163	0	5	5970	86133	2	1	4		rre	Ingerek/teszt/2_cat_baseballb.bmp
1_PALT_S1_tACS	102	1	"<?xml version=""1.0""?>\n<Clock xmlns:dt=""urn:schemas-microsoft-com:datatypes""><Description dt:dt=""string"">E-Prime Primary Realtime Clock</Description><StartTime><Timestamp dt:dt=""int"">0</Timestamp><DateUtc dt:dt=""string"">2022-07-08T16:17:10Z</DateUtc></StartTime><FrequencyChanges><FrequencyChange><Frequency dt:dt=""r8"">10000000</Frequency><Timestamp dt:dt=""r8"">11283715441731</Timestamp><Current dt:dt=""r8"">0</Current><DateUtc dt:dt=""string"">2022-07-08T16:17:10Z</DateUtc></FrequencyChange></FrequencyChanges></Clock>\n"	1_PALT_S1_tACS-102-1	74.989	1.0.0.46	1	839041647	Full	3.0.3.80	3.0.3.80	07/08/2022	2022. 07. 08. 16:17:10	18:17:10	3.0.3.82	Keyboard	Keyboard	Keyboard	Keyboard	2				BlockProc2	TESZT	1	1	1	5	1						TrialProc2		TesztIngerek	1	1	Keyboard	-999999	20	86670	0	1	4487	91157	8	1	5		uu	Ingerek/teszt/26_butterfly_chair.bmp
1_PALT_S1_tACS	102	1	"<?xml version=""1.0""?>\n<Clock xmlns:dt=""urn:schemas-microsoft-com:datatypes""><Description dt:dt=""string"">E-Prime Primary Realtime Clock</Description><StartTime><Timestamp dt:dt=""int"">0</Timestamp><DateUtc dt:dt=""string"">2022-07-08T16:17:10Z</DateUtc></StartTime><FrequencyChanges><FrequencyChange><Frequency dt:dt=""r8"">10000000</Frequency><Timestamp dt:dt=""r8"">11283715441731</Timestamp><Current dt:dt=""r8"">0</Current><DateUtc dt:dt=""string"">2022-07-08T16:17:10Z</DateUtc></FrequencyChange></FrequencyChanges></Clock>\n"	1_PALT_S1_tACS-102-1	74.989	1.0.0.46	1	839041647	Full	3.0.3.80	3.0.3.80	07/08/2022	2022. 07. 08. 16:17:10	18:17:10	3.0.3.82	Keyboard	Keyboard	Keyboard	Keyboard	2				BlockProc2	TESZT	1	1	1	6	3						TrialProc2		TesztIngerek	1	3	Keyboard	-999999	20	91683	0	3	2010	93693	6	1	6		ur	Ingerek/teszt/21_swan_television.bmp
1_PALT_S1_tACS	102	1	"<?xml version=""1.0""?>\n<Clock xmlns:dt=""urn:schemas-microsoft-com:datatypes""><Description dt:dt=""string"">E-Prime Primary Realtime Clock</Description><StartTime><Timestamp dt:dt=""int"">0</Timestamp><DateUtc dt:dt=""string"">2022-07-08T16:17:10Z</DateUtc></StartTime><FrequencyChanges><FrequencyChange><Frequency dt:dt=""r8"">10000000</Frequency><Timestamp dt:dt=""r8"">11283715441731</Timestamp><Current dt:dt=""r8"">0</Current><DateUtc dt:dt=""string"">2022-07-08T16:17:10Z</DateUtc></FrequencyChange></FrequencyChanges></Clock>\n"	1_PALT_S1_tACS-102-1	74.989	1.0.0.46	1	839041647	Full	3.0.3.80	3.0.3.80	07/08/2022	2022. 07. 08. 16:17:10	18:17:10	3.0.3.82	Keyboard	Keyboard	Keyboard	Keyboard	2				BlockProc2	TESZT	1	1	1	7	2						TrialProc2		TesztIngerek	1	2	Keyboard	-999999	20	94230	0	2	2759	96989	13	1	7		ru	Ingerek/teszt/18_rooster_knife.bmp
1_PALT_S1_tACS	102	1	"<?xml version=""1.0""?>\n<Clock xmlns:dt=""urn:schemas-microsoft-com:datatypes""><Description dt:dt=""string"">E-Prime Primary Realtime Clock</Description><StartTime><Timestamp dt:dt=""int"">0</Timestamp><DateUtc dt:dt=""string"">2022-07-08T16:17:10Z</DateUtc></StartTime><FrequencyChanges><FrequencyChange><Frequency dt:dt=""r8"">10000000</Frequency><Timestamp dt:dt=""r8"">11283715441731</Timestamp><Current dt:dt=""r8"">0</Current><DateUtc dt:dt=""string"">2022-07-08T16:17:10Z</DateUtc></FrequencyChange></FrequencyChanges></Clock>\n"	1_PALT_S1_tACS-102-1	74.989	1.0.0.46	1	839041647	Full	3.0.3.80	3.0.3.80	07/08/2022	2022. 07. 08. 16:17:10	18:17:10	3.0.3.82	Keyboard	Keyboard	Keyboard	Keyboard	2				BlockProc2	TESZT	1	1	1	8	1						TrialProc2		TesztIngerek	1	1	Keyboard	-999999	20	97523	0	1	8474	105997	16	1	8		uu	Ingerek/teszt/28_horse_couch.bmp
1_PALT_S1_tACS	102	1	"<?xml version=""1.0""?>\n<Clock xmlns:dt=""urn:schemas-microsoft-com:datatypes""><Description dt:dt=""string"">E-Prime Primary Realtime Clock</Description><StartTime><Timestamp dt:dt=""int"">0</Timestamp><DateUtc dt:dt=""string"">2022-07-08T16:17:10Z</DateUtc></StartTime><FrequencyChanges><FrequencyChange><Frequency dt:dt=""r8"">10000000</Frequency><Timestamp dt:dt=""r8"">11283715441731</Timestamp><Current dt:dt=""r8"">0</Current><DateUtc dt:dt=""string"">2022-07-08T16:17:10Z</DateUtc></FrequencyChange></FrequencyChanges></Clock>\n"	1_PALT_S1_tACS-102-1	74.989	1.0.0.46	1	839041647	Full	3.0.3.80	3.0.3.80	07/08/2022	2022. 07. 08. 16:17:10	18:17:10	3.0.3.82	Keyboard	Keyboard	Keyboard	Keyboard	2				BlockProc2	TESZT	1	1	1	9	5						TrialProc2		TesztIngerek	0	5	Keyboard	-999999	20	106524	0	4	4001	110525	10	1	9		rre	Ingerek/teszt/4_fox_clock.bmp
1_PALT_S1_tACS	102	1	"<?xml version=""1.0""?>\n<Clock xmlns:dt=""urn:schemas-microsoft-com:datatypes""><Description dt:dt=""string"">E-Prime Primary Realtime Clock</Description><StartTime><Timestamp dt:dt=""int"">0</Timestamp><DateUtc dt:dt=""string"">2022-07-08T16:17:10Z</DateUtc></StartTime><FrequencyChanges><FrequencyChange><Frequency dt:dt=""r8"">10000000</Frequency><Timestamp dt:dt=""r8"">11283715441731</Timestamp><Current dt:dt=""r8"">0</Current><DateUtc dt:dt=""string"">2022-07-08T16:17:10Z</DateUtc></FrequencyChange></FrequencyChanges></Clock>\n"	1_PALT_S1_tACS-102-1	74.989	1.0.0.46	1	839041647	Full	3.0.3.80	3.0.3.80	07/08/2022	2022. 07. 08. 16:17:10	18:17:10	3.0.3.82	Keyboard	Keyboard	Keyboard	Keyboard	2				BlockProc2	TESZT	1	1	1	10	4						TrialProc2		TesztIngerek	0	4	Keyboard	-999999	20	111057	0	5	9092	120149	11	1	10		rru	Ingerek/teszt/11_monkey_motor.bmp
1_PALT_S1_tACS	102	1	"<?xml version=""1.0""?>\n<Clock xmlns:dt=""urn:schemas-microsoft-com:datatypes""><Description dt:dt=""string"">E-Prime Primary Realtime Clock</Description><StartTime><Timestamp dt:dt=""int"">0</Timestamp><DateUtc dt:dt=""string"">2022-07-08T16:17:10Z</DateUtc></StartTime><FrequencyChanges><FrequencyChange><Frequency dt:dt=""r8"">10000000</Frequency><Timestamp dt:dt=""r8"">11283715441731</Timestamp><Current dt:dt=""r8"">0</Current><DateUtc dt:dt=""string"">2022-07-08T16:17:10Z</DateUtc></FrequencyChange></FrequencyChanges></Clock>\n"	1_PALT_S1_tACS-102-1	74.989	1.0.0.46	1	839041647	Full	3.0.3.80	3.0.3.80	07/08/2022	2022. 07. 08. 16:17:10	18:17:10	3.0.3.82	Keyboard	Keyboard	Keyboard	Keyboard	2				BlockProc2	TESZT	1	1	1	11	4						TrialProc2		TesztIngerek	0	4	Keyboard	-999999	21	120685	0	5	3727	124412	19	1	11		rru	Ingerek/teszt/13_pig_sailboat.bmp
1_PALT_S1_tACS	102	1	"<?xml version=""1.0""?>\n<Clock xmlns:dt=""urn:schemas-microsoft-com:datatypes""><Description dt:dt=""string"">E-Prime Primary Realtime Clock</Description><StartTime><Timestamp dt:dt=""int"">0</Timestamp><DateUtc dt:dt=""string"">2022-07-08T16:17:10Z</DateUtc></StartTime><FrequencyChanges><FrequencyChange><Frequency dt:dt=""r8"">10000000</Frequency><Timestamp dt:dt=""r8"">11283715441731</Timestamp><Current dt:dt=""r8"">0</Current><DateUtc dt:dt=""string"">2022-07-08T16:17:10Z</DateUtc></FrequencyChange></FrequencyChanges></Clock>\n"	1_PALT_S1_tACS-102-1	74.989	1.0.0.46	1	839041647	Full	3.0.3.80	3.0.3.80	07/08/2022	2022. 07. 08. 16:17:10	18:17:10	3.0.3.82	Keyboard	Keyboard	Keyboard	Keyboard	2				BlockProc2	TESZT	1	1	1	12	4						TrialProc2		TesztIngerek	0	4	Keyboard	-999999	20	124938	0	5	13074	138012	12	1	12		rru	Ingerek/teszt/12_peacock_rollingpin.bmp
1_PALT_S1_tACS	102	1	"<?xml version=""1.0""?>\n<Clock xmlns:dt=""urn:schemas-microsoft-com:datatypes""><Description dt:dt=""string"">E-Prime Primary Realtime Clock</Description><StartTime><Timestamp dt:dt=""int"">0</Timestamp><DateUtc dt:dt=""string"">2022-07-08T16:17:10Z</DateUtc></StartTime><FrequencyChanges><FrequencyChange><Frequency dt:dt=""r8"">10000000</Frequency><Timestamp dt:dt=""r8"">11283715441731</Timestamp><Current dt:dt=""r8"">0</Current><DateUtc dt:dt=""string"">2022-07-08T16:17:10Z</DateUtc></FrequencyChange></FrequencyChanges></Clock>\n"	1_PALT_S1_tACS-102-1	74.989	1.0.0.46	1	839041647	Full	3.0.3.80	3.0.3.80	07/08/2022	2022. 07. 08. 16:17:10	18:17:10	3.0.3.82	Keyboard	Keyboard	Keyboard	Keyboard	2				BlockProc2	TESZT	1	1	1	13	5						TrialProc2		TesztIngerek	0	5	Keyboard	-999999	20	138539	0	4	10657	149196	9	1	13		rre	Ingerek/teszt/3_donkey_bowl.bmp
1_PALT_S1_tACS	102	1	"<?xml version=""1.0""?>\n<Clock xmlns:dt=""urn:schemas-microsoft-com:datatypes""><Description dt:dt=""string"">E-Prime Primary Realtime Clock</Description><StartTime><Timestamp dt:dt=""int"">0</Timestamp><DateUtc dt:dt=""string"">2022-07-08T16:17:10Z</DateUtc></StartTime><FrequencyChanges><FrequencyChange><Frequency dt:dt=""r8"">10000000</Frequency><Timestamp dt:dt=""r8"">11283715441731</Timestamp><Current dt:dt=""r8"">0</Current><DateUtc dt:dt=""string"">2022-07-08T16:17:10Z</DateUtc></FrequencyChange></FrequencyChanges></Clock>\n"	1_PALT_S1_tACS-102-1	74.989	1.0.0.46	1	839041647	Full	3.0.3.80	3.0.3.80	07/08/2022	2022. 07. 08. 16:17:10	18:17:10	3.0.3.82	Keyboard	Keyboard	Keyboard	Keyboard	2				BlockProc2	TESZT	1	1	1	14	5						TrialProc2		TesztIngerek	0	5	Keyboard	-999999	20	149726	0	4	9574	159300	17	1	14		rre	Ingerek/teszt/5_giraffe_coat.bmp
1_PALT_S1_tACS	102	1	"<?xml version=""1.0""?>\n<Clock xmlns:dt=""urn:schemas-microsoft-com:datatypes""><Description dt:dt=""string"">E-Prime Primary Realtime Clock</Description><StartTime><Timestamp dt:dt=""int"">0</Timestamp><DateUtc dt:dt=""string"">2022-07-08T16:17:10Z</DateUtc></StartTime><FrequencyChanges><FrequencyChange><Frequency dt:dt=""r8"">10000000</Frequency><Timestamp dt:dt=""r8"">11283715441731</Timestamp><Current dt:dt=""r8"">0</Current><DateUtc dt:dt=""string"">2022-07-08T16:17:10Z</DateUtc></FrequencyChange></FrequencyChanges></Clock>\n"	1_PALT_S1_tACS-102-1	74.989	1.0.0.46	1	839041647	Full	3.0.3.80	3.0.3.80	07/08/2022	2022. 07. 08. 16:17:10	18:17:10	3.0.3.82	Keyboard	Keyboard	Keyboard	Keyboard	2				BlockProc2	TESZT	1	1	1	15	3						TrialProc2		TesztIngerek	1	3	Keyboard	-999999	20	159833	0	3	2795	162628	14	1	15		ur	Ingerek/teszt/22_sheep_vest.bmp
1_PALT_S1_tACS	102	1	"<?xml version=""1.0""?>\n<Clock xmlns:dt=""urn:schemas-microsoft-com:datatypes""><Description dt:dt=""string"">E-Prime Primary Realtime Clock</Description><StartTime><Timestamp dt:dt=""int"">0</Timestamp><DateUtc dt:dt=""string"">2022-07-08T16:17:10Z</DateUtc></StartTime><FrequencyChanges><FrequencyChange><Frequency dt:dt=""r8"">10000000</Frequency><Timestamp dt:dt=""r8"">11283715441731</Timestamp><Current dt:dt=""r8"">0</Current><DateUtc dt:dt=""string"">2022-07-08T16:17:10Z</DateUtc></FrequencyChange></FrequencyChanges></Clock>\n"	1_PALT_S1_tACS-102-1	74.989	1.0.0.46	1	839041647	Full	3.0.3.80	3.0.3.80	07/08/2022	2022. 07. 08. 16:17:10	18:17:10	3.0.3.82	Keyboard	Keyboard	Keyboard	Keyboard	2				BlockProc2	TESZT	1	1	1	16	4						TrialProc2		TesztIngerek	1	4	Keyboard	-999999	20	163167	0	4	2757	165924	3	1	16		rru	Ingerek/teszt/9_lion_kettle.bmp
1_PALT_S1_tACS	102	1	"<?xml version=""1.0""?>\n<Clock xmlns:dt=""urn:schemas-microsoft-com:datatypes""><Description dt:dt=""string"">E-Prime Primary Realtime Clock</Description><StartTime><Timestamp dt:dt=""int"">0</Timestamp><DateUtc dt:dt=""string"">2022-07-08T16:17:10Z</DateUtc></StartTime><FrequencyChanges><FrequencyChange><Frequency dt:dt=""r8"">10000000</Frequency><Timestamp dt:dt=""r8"">11283715441731</Timestamp><Current dt:dt=""r8"">0</Current><DateUtc dt:dt=""string"">2022-07-08T16:17:10Z</DateUtc></FrequencyChange></FrequencyChanges></Clock>\n"	1_PALT_S1_tACS-102-1	74.989	1.0.0.46	1	839041647	Full	3.0.3.80	3.0.3.80	07/08/2022	2022. 07. 08. 16:17:10	18:17:10	3.0.3.82	Keyboard	Keyboard	Keyboard	Keyboard	2				BlockProc2	TESZT	1	1	1	17	1						TrialProc2		TesztIngerek	1	1	Keyboard	-999999	20	166460	0	1	5824	172284	23	1	17		uu	Ingerek/teszt/29_fly_cup.bmp
1_PALT_S1_tACS	102	1	"<?xml version=""1.0""?>\n<Clock xmlns:dt=""urn:schemas-microsoft-com:datatypes""><Description dt:dt=""string"">E-Prime Primary Realtime Clock</Description><StartTime><Timestamp dt:dt=""int"">0</Timestamp><DateUtc dt:dt=""string"">2022-07-08T16:17:10Z</DateUtc></StartTime><FrequencyChanges><FrequencyChange><Frequency dt:dt=""r8"">10000000</Frequency><Timestamp dt:dt=""r8"">11283715441731</Timestamp><Current dt:dt=""r8"">0</Current><DateUtc dt:dt=""string"">2022-07-08T16:17:10Z</DateUtc></FrequencyChange></FrequencyChanges></Clock>\n"	1_PALT_S1_tACS-102-1	74.989	1.0.0.46	1	839041647	Full	3.0.3.80	3.0.3.80	07/08/2022	2022. 07. 08. 16:17:10	18:17:10	3.0.3.82	Keyboard	Keyboard	Keyboard	Keyboard	2				BlockProc2	TESZT	1	1	1	18	4						TrialProc2		TesztIngerek	1	4	Keyboard	-999999	20	172820	0	4	3656	176476	4	1	18		rru	Ingerek/teszt/10_lobster_ladder.bmp
1_PALT_S1_tACS	102	1	"<?xml version=""1.0""?>\n<Clock xmlns:dt=""urn:schemas-microsoft-com:datatypes""><Description dt:dt=""string"">E-Prime Primary Realtime Clock</Description><StartTime><Timestamp dt:dt=""int"">0</Timestamp><DateUtc dt:dt=""string"">2022-07-08T16:17:10Z</DateUtc></StartTime><FrequencyChanges><FrequencyChange><Frequency dt:dt=""r8"">10000000</Frequency><Timestamp dt:dt=""r8"">11283715441731</Timestamp><Current dt:dt=""r8"">0</Current><DateUtc dt:dt=""string"">2022-07-08T16:17:10Z</DateUtc></FrequencyChange></FrequencyChanges></Clock>\n"	1_PALT_S1_tACS-102-1	74.989	1.0.0.46	1	839041647	Full	3.0.3.80	3.0.3.80	07/08/2022	2022. 07. 08. 16:17:10	18:17:10	3.0.3.82	Keyboard	Keyboard	Keyboard	Keyboard	2				BlockProc2	TESZT	1	1	1	19	2						TrialProc2		TesztIngerek	1	2	Keyboard	-999999	20	177007	0	2	1981	178988	21	1	19		ru	Ingerek/teszt/19_seal_rollerskate.bmp
1_PALT_S1_tACS	102	1	"<?xml version=""1.0""?>\n<Clock xmlns:dt=""urn:schemas-microsoft-com:datatypes""><Description dt:dt=""string"">E-Prime Primary Realtime Clock</Description><StartTime><Timestamp dt:dt=""int"">0</Timestamp><DateUtc dt:dt=""string"">2022-07-08T16:17:10Z</DateUtc></StartTime><FrequencyChanges><FrequencyChange><Frequency dt:dt=""r8"">10000000</Frequency><Timestamp dt:dt=""r8"">11283715441731</Timestamp><Current dt:dt=""r8"">0</Current><DateUtc dt:dt=""string"">2022-07-08T16:17:10Z</DateUtc></FrequencyChange></FrequencyChanges></Clock>\n"	1_PALT_S1_tACS-102-1	74.989	1.0.0.46	1	839041647	Full	3.0.3.80	3.0.3.80	07/08/2022	2022. 07. 08. 16:17:10	18:17:10	3.0.3.82	Keyboard	Keyboard	Keyboard	Keyboard	2				BlockProc2	TESZT	1	1	1	20	1						TrialProc2		TesztIngerek	1	1	Keyboard	-999999	20	179514	0	1	3314	182828	24	1	20		uu	Ingerek/teszt/30_leopard_garbage can.bmp
1_PALT_S1_tACS	102	1	"<?xml version=""1.0""?>\n<Clock xmlns:dt=""urn:schemas-microsoft-com:datatypes""><Description dt:dt=""string"">E-Prime Primary Realtime Clock</Description><StartTime><Timestamp dt:dt=""int"">0</Timestamp><DateUtc dt:dt=""string"">2022-07-08T16:17:10Z</DateUtc></StartTime><FrequencyChanges><FrequencyChange><Frequency dt:dt=""r8"">10000000</Frequency><Timestamp dt:dt=""r8"">11283715441731</Timestamp><Current dt:dt=""r8"">0</Current><DateUtc dt:dt=""string"">2022-07-08T16:17:10Z</DateUtc></FrequencyChange></FrequencyChanges></Clock>\n"	1_PALT_S1_tACS-102-1	74.989	1.0.0.46	1	839041647	Full	3.0.3.80	3.0.3.80	07/08/2022	2022. 07. 08. 16:17:10	18:17:10	3.0.3.82	Keyboard	Keyboard	Keyboard	Keyboard	2				BlockProc2	TESZT	1	1	1	21	2						TrialProc2		TesztIngerek	1	2	Keyboard	-999999	20	183354	0	2	2034	185388	5	1	21		ru	Ingerek/teszt/17_rhino_hat.bmp
1_PALT_S1_tACS	102	1	"<?xml version=""1.0""?>\n<Clock xmlns:dt=""urn:schemas-microsoft-com:datatypes""><Description dt:dt=""string"">E-Prime Primary Realtime Clock</Description><StartTime><Timestamp dt:dt=""int"">0</Timestamp><DateUtc dt:dt=""string"">2022-07-08T16:17:10Z</DateUtc></StartTime><FrequencyChanges><FrequencyChange><Frequency dt:dt=""r8"">10000000</Frequency><Timestamp dt:dt=""r8"">11283715441731</Timestamp><Current dt:dt=""r8"">0</Current><DateUtc dt:dt=""string"">2022-07-08T16:17:10Z</DateUtc></FrequencyChange></FrequencyChanges></Clock>\n"	1_PALT_S1_tACS-102-1	74.989	1.0.0.46	1	839041647	Full	3.0.3.80	3.0.3.80	07/08/2022	2022. 07. 08. 16:17:10	18:17:10	3.0.3.82	Keyboard	Keyboard	Keyboard	Keyboard	2				BlockProc2	TESZT	1	1	1	22	1						TrialProc2		TesztIngerek	1	1	Keyboard	-999999	20	185914	0	1	3018	188932	15	1	22		uu	Ingerek/teszt/27_elephant_candel.bmp
1_PALT_S1_tACS	102	1	"<?xml version=""1.0""?>\n<Clock xmlns:dt=""urn:schemas-microsoft-com:datatypes""><Description dt:dt=""string"">E-Prime Primary Realtime Clock</Description><StartTime><Timestamp dt:dt=""int"">0</Timestamp><DateUtc dt:dt=""string"">2022-07-08T16:17:10Z</DateUtc></StartTime><FrequencyChanges><FrequencyChange><Frequency dt:dt=""r8"">10000000</Frequency><Timestamp dt:dt=""r8"">11283715441731</Timestamp><Current dt:dt=""r8"">0</Current><DateUtc dt:dt=""string"">2022-07-08T16:17:10Z</DateUtc></FrequencyChange></FrequencyChanges></Clock>\n"	1_PALT_S1_tACS-102-1	74.989	1.0.0.46	1	839041647	Full	3.0.3.80	3.0.3.80	07/08/2022	2022. 07. 08. 16:17:10	18:17:10	3.0.3.82	Keyboard	Keyboard	Keyboard	Keyboard	2				BlockProc2	TESZT	1	1	1	23	4						TrialProc2		TesztIngerek	1	4	Keyboard	-999999	20	189461	0	4	8951	198412	20	1	23		rru	Ingerek/teszt/14_spider_shoe.bmp
1_PALT_S1_tACS	102	1	"<?xml version=""1.0""?>\n<Clock xmlns:dt=""urn:schemas-microsoft-com:datatypes""><Description dt:dt=""string"">E-Prime Primary Realtime Clock</Description><StartTime><Timestamp dt:dt=""int"">0</Timestamp><DateUtc dt:dt=""string"">2022-07-08T16:17:10Z</DateUtc></StartTime><FrequencyChanges><FrequencyChange><Frequency dt:dt=""r8"">10000000</Frequency><Timestamp dt:dt=""r8"">11283715441731</Timestamp><Current dt:dt=""r8"">0</Current><DateUtc dt:dt=""string"">2022-07-08T16:17:10Z</DateUtc></FrequencyChange></FrequencyChanges></Clock>\n"	1_PALT_S1_tACS-102-1	74.989	1.0.0.46	1	839041647	Full	3.0.3.80	3.0.3.80	07/08/2022	2022. 07. 08. 16:17:10	18:17:10	3.0.3.82	Keyboard	Keyboard	Keyboard	Keyboard	2				BlockProc2	TESZT	1	1	1	24	3						TrialProc2		TesztIngerek	1	3	Keyboard	-999999	20	198942	0	3	5006	203948	22	1	24		ur	Ingerek/teszt/23_tiger_windmill.bmp
1_PALT_S1_tACS	103	1	"<?xml version=""1.0""?>\n<Clock xmlns:dt=""urn:schemas-microsoft-com:datatypes""><Description dt:dt=""string"">E-Prime Primary Realtime Clock</Description><StartTime><Timestamp dt:dt=""int"">0</Timestamp><DateUtc dt:dt=""string"">2022-07-15T13:11:09Z</DateUtc></StartTime><FrequencyChanges><FrequencyChange><Frequency dt:dt=""r8"">10000000</Frequency><Timestamp dt:dt=""r8"">17220260987697</Timestamp><Current dt:dt=""r8"">0</Current><DateUtc dt:dt=""string"">2022-07-15T13:11:09Z</DateUtc></FrequencyChange></FrequencyChanges></Clock>\n"	1_PALT_S1_tACS-103-1	74.99	1.0.0.46	1	1739768667	Full	3.0.3.80	3.0.3.80	07-15-2022	2022. 07. 15. 13:11:10	15:11:10	3.0.3.82	Keyboard	Keyboard	Keyboard	Keyboard	1	1	1	1	BlockProc3	PROBA				1		3	Keyboard	4	1	1	TrialProc3	Ingerek/proba/4_pencil_top.bmp	ProbIngerek														ur_proba		
1_PALT_S1_tACS	103	1	"<?xml version=""1.0""?>\n<Clock xmlns:dt=""urn:schemas-microsoft-com:datatypes""><Description dt:dt=""string"">E-Prime Primary Realtime Clock</Description><StartTime><Timestamp dt:dt=""int"">0</Timestamp><DateUtc dt:dt=""string"">2022-07-15T13:11:09Z</DateUtc></StartTime><FrequencyChanges><FrequencyChange><Frequency dt:dt=""r8"">10000000</Frequency><Timestamp dt:dt=""r8"">17220260987697</Timestamp><Current dt:dt=""r8"">0</Current><DateUtc dt:dt=""string"">2022-07-15T13:11:09Z</DateUtc></FrequencyChange></FrequencyChanges></Clock>\n"	1_PALT_S1_tACS-103-1	74.99	1.0.0.46	1	1739768667	Full	3.0.3.80	3.0.3.80	07-15-2022	2022. 07. 15. 13:11:10	15:11:10	3.0.3.82	Keyboard	Keyboard	Keyboard	Keyboard	1	1	1	1	BlockProc3	PROBA				2		4	Keyboard	2	1	2	TrialProc3	Ingerek/proba/2_carrott_truck.bmp	ProbIngerek														rru_proba		
1_PALT_S1_tACS	103	1	"<?xml version=""1.0""?>\n<Clock xmlns:dt=""urn:schemas-microsoft-com:datatypes""><Description dt:dt=""string"">E-Prime Primary Realtime Clock</Description><StartTime><Timestamp dt:dt=""int"">0</Timestamp><DateUtc dt:dt=""string"">2022-07-15T13:11:09Z</DateUtc></StartTime><FrequencyChanges><FrequencyChange><Frequency dt:dt=""r8"">10000000</Frequency><Timestamp dt:dt=""r8"">17220260987697</Timestamp><Current dt:dt=""r8"">0</Current><DateUtc dt:dt=""string"">2022-07-15T13:11:09Z</DateUtc></FrequencyChange></FrequencyChanges></Clock>\n"	1_PALT_S1_tACS-103-1	74.99	1.0.0.46	1	1739768667	Full	3.0.3.80	3.0.3.80	07-15-2022	2022. 07. 15. 13:11:10	15:11:10	3.0.3.82	Keyboard	Keyboard	Keyboard	Keyboard	1	1	1	1	BlockProc3	PROBA				3		5	Keyboard	1	1	3	TrialProc3	Ingerek/proba/1_alligator_baby carriage.bmp	ProbIngerek														rre_proba		
1_PALT_S1_tACS	103	1	"<?xml version=""1.0""?>\n<Clock xmlns:dt=""urn:schemas-microsoft-com:datatypes""><Description dt:dt=""string"">E-Prime Primary Realtime Clock</Description><StartTime><Timestamp dt:dt=""int"">0</Timestamp><DateUtc dt:dt=""string"">2022-07-15T13:11:09Z</DateUtc></StartTime><FrequencyChanges><FrequencyChange><Frequency dt:dt=""r8"">10000000</Frequency><Timestamp dt:dt=""r8"">17220260987697</Timestamp><Current dt:dt=""r8"">0</Current><DateUtc dt:dt=""string"">2022-07-15T13:11:09Z</DateUtc></FrequencyChange></FrequencyChanges></Clock>\n"	1_PALT_S1_tACS-103-1	74.99	1.0.0.46	1	1739768667	Full	3.0.3.80	3.0.3.80	07-15-2022	2022. 07. 15. 13:11:10	15:11:10	3.0.3.82	Keyboard	Keyboard	Keyboard	Keyboard	1	1	1	1	BlockProc3	PROBA				4		1	Keyboard	5	1	4	TrialProc3	Ingerek/proba/5_chicken_bicycle.bmp	ProbIngerek														uu_proba		
1_PALT_S1_tACS	103	1	"<?xml version=""1.0""?>\n<Clock xmlns:dt=""urn:schemas-microsoft-com:datatypes""><Description dt:dt=""string"">E-Prime Primary Realtime Clock</Description><StartTime><Timestamp dt:dt=""int"">0</Timestamp><DateUtc dt:dt=""string"">2022-07-15T13:11:09Z</DateUtc></StartTime><FrequencyChanges><FrequencyChange><Frequency dt:dt=""r8"">10000000</Frequency><Timestamp dt:dt=""r8"">17220260987697</Timestamp><Current dt:dt=""r8"">0</Current><DateUtc dt:dt=""string"">2022-07-15T13:11:09Z</DateUtc></FrequencyChange></FrequencyChanges></Clock>\n"	1_PALT_S1_tACS-103-1	74.99	1.0.0.46	1	1739768667	Full	3.0.3.80	3.0.3.80	07-15-2022	2022. 07. 15. 13:11:10	15:11:10	3.0.3.82	Keyboard	Keyboard	Keyboard	Keyboard	1	1	1	1	BlockProc3	PROBA				5		2	Keyboard	3	1	5	TrialProc3	Ingerek/proba/3_mouse_duck.bmp	ProbIngerek														ru_proba		
1_PALT_S1_tACS	103	1	"<?xml version=""1.0""?>\n<Clock xmlns:dt=""urn:schemas-microsoft-com:datatypes""><Description dt:dt=""string"">E-Prime Primary Realtime Clock</Description><StartTime><Timestamp dt:dt=""int"">0</Timestamp><DateUtc dt:dt=""string"">2022-07-15T13:11:09Z</DateUtc></StartTime><FrequencyChanges><FrequencyChange><Frequency dt:dt=""r8"">10000000</Frequency><Timestamp dt:dt=""r8"">17220260987697</Timestamp><Current dt:dt=""r8"">0</Current><DateUtc dt:dt=""string"">2022-07-15T13:11:09Z</DateUtc></FrequencyChange></FrequencyChanges></Clock>\n"	1_PALT_S1_tACS-103-1	74.99	1.0.0.46	1	1739768667	Full	3.0.3.80	3.0.3.80	07-15-2022	2022. 07. 15. 13:11:10	15:11:10	3.0.3.82	Keyboard	Keyboard	Keyboard	Keyboard	2				BlockProc2	TESZT	1	1	1	1	4						TrialProc2		TesztIngerek	0	4	Keyboard	-999999	20	62094	0	5	4574	66668	3	1	1		rru	Ingerek/teszt/9_lion_kettle.bmp
1_PALT_S1_tACS	103	1	"<?xml version=""1.0""?>\n<Clock xmlns:dt=""urn:schemas-microsoft-com:datatypes""><Description dt:dt=""string"">E-Prime Primary Realtime Clock</Description><StartTime><Timestamp dt:dt=""int"">0</Timestamp><DateUtc dt:dt=""string"">2022-07-15T13:11:09Z</DateUtc></StartTime><FrequencyChanges><FrequencyChange><Frequency dt:dt=""r8"">10000000</Frequency><Timestamp dt:dt=""r8"">17220260987697</Timestamp><Current dt:dt=""r8"">0</Current><DateUtc dt:dt=""string"">2022-07-15T13:11:09Z</DateUtc></FrequencyChange></FrequencyChanges></Clock>\n"	1_PALT_S1_tACS-103-1	74.99	1.0.0.46	1	1739768667	Full	3.0.3.80	3.0.3.80	07-15-2022	2022. 07. 15. 13:11:10	15:11:10	3.0.3.82	Keyboard	Keyboard	Keyboard	Keyboard	2				BlockProc2	TESZT	1	1	1	2	1						TrialProc2		TesztIngerek	1	1	Keyboard	-999999	20	67201	0	1	4779	71980	16	1	2		uu	Ingerek/teszt/28_horse_couch.bmp
1_PALT_S1_tACS	103	1	"<?xml version=""1.0""?>\n<Clock xmlns:dt=""urn:schemas-microsoft-com:datatypes""><Description dt:dt=""string"">E-Prime Primary Realtime Clock</Description><StartTime><Timestamp dt:dt=""int"">0</Timestamp><DateUtc dt:dt=""string"">2022-07-15T13:11:09Z</DateUtc></StartTime><FrequencyChanges><FrequencyChange><Frequency dt:dt=""r8"">10000000</Frequency><Timestamp dt:dt=""r8"">17220260987697</Timestamp><Current dt:dt=""r8"">0</Current><DateUtc dt:dt=""string"">2022-07-15T13:11:09Z</DateUtc></FrequencyChange></FrequencyChanges></Clock>\n"	1_PALT_S1_tACS-103-1	74.99	1.0.0.46	1	1739768667	Full	3.0.3.80	3.0.3.80	07-15-2022	2022. 07. 15. 13:11:10	15:11:10	3.0.3.82	Keyboard	Keyboard	Keyboard	Keyboard	2				BlockProc2	TESZT	1	1	1	3	4						TrialProc2		TesztIngerek	0	4	Keyboard	-999999	20	72508	0	5	2656	75164	20	1	3		rru	Ingerek/teszt/14_spider_shoe.bmp
1_PALT_S1_tACS	103	1	"<?xml version=""1.0""?>\n<Clock xmlns:dt=""urn:schemas-microsoft-com:datatypes""><Description dt:dt=""string"">E-Prime Primary Realtime Clock</Description><StartTime><Timestamp dt:dt=""int"">0</Timestamp><DateUtc dt:dt=""string"">2022-07-15T13:11:09Z</DateUtc></StartTime><FrequencyChanges><FrequencyChange><Frequency dt:dt=""r8"">10000000</Frequency><Timestamp dt:dt=""r8"">17220260987697</Timestamp><Current dt:dt=""r8"">0</Current><DateUtc dt:dt=""string"">2022-07-15T13:11:09Z</DateUtc></FrequencyChange></FrequencyChanges></Clock>\n"	1_PALT_S1_tACS-103-1	74.99	1.0.0.46	1	1739768667	Full	3.0.3.80	3.0.3.80	07-15-2022	2022. 07. 15. 13:11:10	15:11:10	3.0.3.82	Keyboard	Keyboard	Keyboard	Keyboard	2				BlockProc2	TESZT	1	1	1	4	4						TrialProc2		TesztIngerek	0	4	Keyboard	-999999	20	75695	0	5	2805	78500	11	1	4		rru	Ingerek/teszt/11_monkey_motor.bmp
1_PALT_S1_tACS	103	1	"<?xml version=""1.0""?>\n<Clock xmlns:dt=""urn:schemas-microsoft-com:datatypes""><Description dt:dt=""string"">E-Prime Primary Realtime Clock</Description><StartTime><Timestamp dt:dt=""int"">0</Timestamp><DateUtc dt:dt=""string"">2022-07-15T13:11:09Z</DateUtc></StartTime><FrequencyChanges><FrequencyChange><Frequency dt:dt=""r8"">10000000</Frequency><Timestamp dt:dt=""r8"">17220260987697</Timestamp><Current dt:dt=""r8"">0</Current><DateUtc dt:dt=""string"">2022-07-15T13:11:09Z</DateUtc></FrequencyChange></FrequencyChanges></Clock>\n"	1_PALT_S1_tACS-103-1	74.99	1.0.0.46	1	1739768667	Full	3.0.3.80	3.0.3.80	07-15-2022	2022. 07. 15. 13:11:10	15:11:10	3.0.3.82	Keyboard	Keyboard	Keyboard	Keyboard	2				BlockProc2	TESZT	1	1	1	5	4						TrialProc2		TesztIngerek	0	4	Keyboard	-999999	20	79028	0	5	2648	81676	4	1	5		rru	Ingerek/teszt/10_lobster_ladder.bmp
1_PALT_S1_tACS	103	1	"<?xml version=""1.0""?>\n<Clock xmlns:dt=""urn:schemas-microsoft-com:datatypes""><Description dt:dt=""string"">E-Prime Primary Realtime Clock</Description><StartTime><Timestamp dt:dt=""int"">0</Timestamp><DateUtc dt:dt=""string"">2022-07-15T13:11:09Z</DateUtc></StartTime><FrequencyChanges><FrequencyChange><Frequency dt:dt=""r8"">10000000</Frequency><Timestamp dt:dt=""r8"">17220260987697</Timestamp><Current dt:dt=""r8"">0</Current><DateUtc dt:dt=""string"">2022-07-15T13:11:09Z</DateUtc></FrequencyChange></FrequencyChanges></Clock>\n"	1_PALT_S1_tACS-103-1	74.99	1.0.0.46	1	1739768667	Full	3.0.3.80	3.0.3.80	07-15-2022	2022. 07. 15. 13:11:10	15:11:10	3.0.3.82	Keyboard	Keyboard	Keyboard	Keyboard	2				BlockProc2	TESZT	1	1	1	6	4						TrialProc2		TesztIngerek	1	4	Keyboard	-999999	20	82202	0	4	2930	85132	12	1	6		rru	Ingerek/teszt/12_peacock_rollingpin.bmp
1_PALT_S1_tACS	103	1	"<?xml version=""1.0""?>\n<Clock xmlns:dt=""urn:schemas-microsoft-com:datatypes""><Description dt:dt=""string"">E-Prime Primary Realtime Clock</Description><StartTime><Timestamp dt:dt=""int"">0</Timestamp><DateUtc dt:dt=""string"">2022-07-15T13:11:09Z</DateUtc></StartTime><FrequencyChanges><FrequencyChange><Frequency dt:dt=""r8"">10000000</Frequency><Timestamp dt:dt=""r8"">17220260987697</Timestamp><Current dt:dt=""r8"">0</Current><DateUtc dt:dt=""string"">2022-07-15T13:11:09Z</DateUtc></FrequencyChange></FrequencyChanges></Clock>\n"	1_PALT_S1_tACS-103-1	74.99	1.0.0.46	1	1739768667	Full	3.0.3.80	3.0.3.80	07-15-2022	2022. 07. 15. 13:11:10	15:11:10	3.0.3.82	Keyboard	Keyboard	Keyboard	Keyboard	2				BlockProc2	TESZT	1	1	1	7	3						TrialProc2		TesztIngerek	1	3	Keyboard	-999999	20	85669	0	3	2431	88100	6	1	7		ur	Ingerek/teszt/21_swan_television.bmp
1_PALT_S1_tACS	103	1	"<?xml version=""1.0""?>\n<Clock xmlns:dt=""urn:schemas-microsoft-com:datatypes""><Description dt:dt=""string"">E-Prime Primary Realtime Clock</Description><StartTime><Timestamp dt:dt=""int"">0</Timestamp><DateUtc dt:dt=""string"">2022-07-15T13:11:09Z</DateUtc></StartTime><FrequencyChanges><FrequencyChange><Frequency dt:dt=""r8"">10000000</Frequency><Timestamp dt:dt=""r8"">17220260987697</Timestamp><Current dt:dt=""r8"">0</Current><DateUtc dt:dt=""string"">2022-07-15T13:11:09Z</DateUtc></FrequencyChange></FrequencyChanges></Clock>\n"	1_PALT_S1_tACS-103-1	74.99	1.0.0.46	1	1739768667	Full	3.0.3.80	3.0.3.80	07-15-2022	2022. 07. 15. 13:11:10	15:11:10	3.0.3.82	Keyboard	Keyboard	Keyboard	Keyboard	2				BlockProc2	TESZT	1	1	1	8	5						TrialProc2		TesztIngerek	1	5	Keyboard	-999999	20	88629	0	5	2551	91180	10	1	8		rre	Ingerek/teszt/4_fox_clock.bmp
1_PALT_S1_tACS	103	1	"<?xml version=""1.0""?>\n<Clock xmlns:dt=""urn:schemas-microsoft-com:datatypes""><Description dt:dt=""string"">E-Prime Primary Realtime Clock</Description><StartTime><Timestamp dt:dt=""int"">0</Timestamp><DateUtc dt:dt=""string"">2022-07-15T13:11:09Z</DateUtc></StartTime><FrequencyChanges><FrequencyChange><Frequency dt:dt=""r8"">10000000</Frequency><Timestamp dt:dt=""r8"">17220260987697</Timestamp><Current dt:dt=""r8"">0</Current><DateUtc dt:dt=""string"">2022-07-15T13:11:09Z</DateUtc></FrequencyChange></FrequencyChanges></Clock>\n"	1_PALT_S1_tACS-103-1	74.99	1.0.0.46	1	1739768667	Full	3.0.3.80	3.0.3.80	07-15-2022	2022. 07. 15. 13:11:10	15:11:10	3.0.3.82	Keyboard	Keyboard	Keyboard	Keyboard	2				BlockProc2	TESZT	1	1	1	9	2						TrialProc2		TesztIngerek	1	2	Keyboard	-999999	20	91709	0	2	3095	94804	13	1	9		ru	Ingerek/teszt/18_rooster_knife.bmp
1_PALT_S1_tACS	103	1	"<?xml version=""1.0""?>\n<Clock xmlns:dt=""urn:schemas-microsoft-com:datatypes""><Description dt:dt=""string"">E-Prime Primary Realtime Clock</Description><StartTime><Timestamp dt:dt=""int"">0</Timestamp><DateUtc dt:dt=""string"">2022-07-15T13:11:09Z</DateUtc></StartTime><FrequencyChanges><FrequencyChange><Frequency dt:dt=""r8"">10000000</Frequency><Timestamp dt:dt=""r8"">17220260987697</Timestamp><Current dt:dt=""r8"">0</Current><DateUtc dt:dt=""string"">2022-07-15T13:11:09Z</DateUtc></FrequencyChange></FrequencyChanges></Clock>\n"	1_PALT_S1_tACS-103-1	74.99	1.0.0.46	1	1739768667	Full	3.0.3.80	3.0.3.80	07-15-2022	2022. 07. 15. 13:11:10	15:11:10	3.0.3.82	Keyboard	Keyboard	Keyboard	Keyboard	2				BlockProc2	TESZT	1	1	1	10	5						TrialProc2		TesztIngerek	1	5	Keyboard	-999999	20	95336	0	5	2436	97772	17	1	10		rre	Ingerek/teszt/5_giraffe_coat.bmp
1_PALT_S1_tACS	103	1	"<?xml version=""1.0""?>\n<Clock xmlns:dt=""urn:schemas-microsoft-com:datatypes""><Description dt:dt=""string"">E-Prime Primary Realtime Clock</Description><StartTime><Timestamp dt:dt=""int"">0</Timestamp><DateUtc dt:dt=""string"">2022-07-15T13:11:09Z</DateUtc></StartTime><FrequencyChanges><FrequencyChange><Frequency dt:dt=""r8"">10000000</Frequency><Timestamp dt:dt=""r8"">17220260987697</Timestamp><Current dt:dt=""r8"">0</Current><DateUtc dt:dt=""string"">2022-07-15T13:11:09Z</DateUtc></FrequencyChange></FrequencyChanges></Clock>\n"	1_PALT_S1_tACS-103-1	74.99	1.0.0.46	1	1739768667	Full	3.0.3.80	3.0.3.80	07-15-2022	2022. 07. 15. 13:11:10	15:11:10	3.0.3.82	Keyboard	Keyboard	Keyboard	Keyboard	2				BlockProc2	TESZT	1	1	1	11	3						TrialProc2		TesztIngerek	1	3	Keyboard	-999999	20	98309	0	3	2279	100588	14	1	11		ur	Ingerek/teszt/22_sheep_vest.bmp
1_PALT_S1_tACS	103	1	"<?xml version=""1.0""?>\n<Clock xmlns:dt=""urn:schemas-microsoft-com:datatypes""><Description dt:dt=""string"">E-Prime Primary Realtime Clock</Description><StartTime><Timestamp dt:dt=""int"">0</Timestamp><DateUtc dt:dt=""string"">2022-07-15T13:11:09Z</DateUtc></StartTime><FrequencyChanges><FrequencyChange><Frequency dt:dt=""r8"">10000000</Frequency><Timestamp dt:dt=""r8"">17220260987697</Timestamp><Current dt:dt=""r8"">0</Current><DateUtc dt:dt=""string"">2022-07-15T13:11:09Z</DateUtc></FrequencyChange></FrequencyChanges></Clock>\n"	1_PALT_S1_tACS-103-1	74.99	1.0.0.46	1	1739768667	Full	3.0.3.80	3.0.3.80	07-15-2022	2022. 07. 15. 13:11:10	15:11:10	3.0.3.82	Keyboard	Keyboard	Keyboard	Keyboard	2				BlockProc2	TESZT	1	1	1	12	2						TrialProc2		TesztIngerek	1	2	Keyboard	-999999	20	101123	0	2	3089	104212	21	1	12		ru	Ingerek/teszt/19_seal_rollerskate.bmp
1_PALT_S1_tACS	103	1	"<?xml version=""1.0""?>\n<Clock xmlns:dt=""urn:schemas-microsoft-com:datatypes""><Description dt:dt=""string"">E-Prime Primary Realtime Clock</Description><StartTime><Timestamp dt:dt=""int"">0</Timestamp><DateUtc dt:dt=""string"">2022-07-15T13:11:09Z</DateUtc></StartTime><FrequencyChanges><FrequencyChange><Frequency dt:dt=""r8"">10000000</Frequency><Timestamp dt:dt=""r8"">17220260987697</Timestamp><Current dt:dt=""r8"">0</Current><DateUtc dt:dt=""string"">2022-07-15T13:11:09Z</DateUtc></FrequencyChange></FrequencyChanges></Clock>\n"	1_PALT_S1_tACS-103-1	74.99	1.0.0.46	1	1739768667	Full	3.0.3.80	3.0.3.80	07-15-2022	2022. 07. 15. 13:11:10	15:11:10	3.0.3.82	Keyboard	Keyboard	Keyboard	Keyboard	2				BlockProc2	TESZT	1	1	1	13	1						TrialProc2		TesztIngerek	1	1	Keyboard	-999999	20	104750	0	1	2638	107388	24	1	13		uu	Ingerek/teszt/30_leopard_garbage can.bmp
1_PALT_S1_tACS	103	1	"<?xml version=""1.0""?>\n<Clock xmlns:dt=""urn:schemas-microsoft-com:datatypes""><Description dt:dt=""string"">E-Prime Primary Realtime Clock</Description><StartTime><Timestamp dt:dt=""int"">0</Timestamp><DateUtc dt:dt=""string"">2022-07-15T13:11:09Z</DateUtc></StartTime><FrequencyChanges><FrequencyChange><Frequency dt:dt=""r8"">10000000</Frequency><Timestamp dt:dt=""r8"">17220260987697</Timestamp><Current dt:dt=""r8"">0</Current><DateUtc dt:dt=""string"">2022-07-15T13:11:09Z</DateUtc></FrequencyChange></FrequencyChanges></Clock>\n"	1_PALT_S1_tACS-103-1	74.99	1.0.0.46	1	1739768667	Full	3.0.3.80	3.0.3.80	07-15-2022	2022. 07. 15. 13:11:10	15:11:10	3.0.3.82	Keyboard	Keyboard	Keyboard	Keyboard	2				BlockProc2	TESZT	1	1	1	14	2						TrialProc2		TesztIngerek	1	2	Keyboard	-999999	20	107923	0	2	3105	111028	5	1	14		ru	Ingerek/teszt/17_rhino_hat.bmp
1_PALT_S1_tACS	103	1	"<?xml version=""1.0""?>\n<Clock xmlns:dt=""urn:schemas-microsoft-com:datatypes""><Description dt:dt=""string"">E-Prime Primary Realtime Clock</Description><StartTime><Timestamp dt:dt=""int"">0</Timestamp><DateUtc dt:dt=""string"">2022-07-15T13:11:09Z</DateUtc></StartTime><FrequencyChanges><FrequencyChange><Frequency dt:dt=""r8"">10000000</Frequency><Timestamp dt:dt=""r8"">17220260987697</Timestamp><Current dt:dt=""r8"">0</Current><DateUtc dt:dt=""string"">2022-07-15T13:11:09Z</DateUtc></FrequencyChange></FrequencyChanges></Clock>\n"	1_PALT_S1_tACS-103-1	74.99	1.0.0.46	1	1739768667	Full	3.0.3.80	3.0.3.80	07-15-2022	2022. 07. 15. 13:11:10	15:11:10	3.0.3.82	Keyboard	Keyboard	Keyboard	Keyboard	2				BlockProc2	TESZT	1	1	1	15	1						TrialProc2		TesztIngerek	1	1	Keyboard	-999999	20	111563	0	1	4705	116268	8	1	15		uu	Ingerek/teszt/26_butterfly_chair.bmp
1_PALT_S1_tACS	103	1	"<?xml version=""1.0""?>\n<Clock xmlns:dt=""urn:schemas-microsoft-com:datatypes""><Description dt:dt=""string"">E-Prime Primary Realtime Clock</Description><StartTime><Timestamp dt:dt=""int"">0</Timestamp><DateUtc dt:dt=""string"">2022-07-15T13:11:09Z</DateUtc></StartTime><FrequencyChanges><FrequencyChange><Frequency dt:dt=""r8"">10000000</Frequency><Timestamp dt:dt=""r8"">17220260987697</Timestamp><Current dt:dt=""r8"">0</Current><DateUtc dt:dt=""string"">2022-07-15T13:11:09Z</DateUtc></FrequencyChange></FrequencyChanges></Clock>\n"	1_PALT_S1_tACS-103-1	74.99	1.0.0.46	1	1739768667	Full	3.0.3.80	3.0.3.80	07-15-2022	2022. 07. 15. 13:11:10	15:11:10	3.0.3.82	Keyboard	Keyboard	Keyboard	Keyboard	2				BlockProc2	TESZT	1	1	1	16	1						TrialProc2		TesztIngerek	1	1	Keyboard	-999999	20	116804	0	1	3288	120092	23	1	16		uu	Ingerek/teszt/29_fly_cup.bmp
1_PALT_S1_tACS	103	1	"<?xml version=""1.0""?>\n<Clock xmlns:dt=""urn:schemas-microsoft-com:datatypes""><Description dt:dt=""string"">E-Prime Primary Realtime Clock</Description><StartTime><Timestamp dt:dt=""int"">0</Timestamp><DateUtc dt:dt=""string"">2022-07-15T13:11:09Z</DateUtc></StartTime><FrequencyChanges><FrequencyChange><Frequency dt:dt=""r8"">10000000</Frequency><Timestamp dt:dt=""r8"">17220260987697</Timestamp><Current dt:dt=""r8"">0</Current><DateUtc dt:dt=""string"">2022-07-15T13:11:09Z</DateUtc></FrequencyChange></FrequencyChanges></Clock>\n"	1_PALT_S1_tACS-103-1	74.99	1.0.0.46	1	1739768667	Full	3.0.3.80	3.0.3.80	07-15-2022	2022. 07. 15. 13:11:10	15:11:10	3.0.3.82	Keyboard	Keyboard	Keyboard	Keyboard	2				BlockProc2	TESZT	1	1	1	17	3						TrialProc2		TesztIngerek	1	3	Keyboard	-999999	20	120630	0	3	2766	123396	22	1	17		ur	Ingerek/teszt/23_tiger_windmill.bmp
1_PALT_S1_tACS	103	1	"<?xml version=""1.0""?>\n<Clock xmlns:dt=""urn:schemas-microsoft-com:datatypes""><Description dt:dt=""string"">E-Prime Primary Realtime Clock</Description><StartTime><Timestamp dt:dt=""int"">0</Timestamp><DateUtc dt:dt=""string"">2022-07-15T13:11:09Z</DateUtc></StartTime><FrequencyChanges><FrequencyChange><Frequency dt:dt=""r8"">10000000</Frequency><Timestamp dt:dt=""r8"">17220260987697</Timestamp><Current dt:dt=""r8"">0</Current><DateUtc dt:dt=""string"">2022-07-15T13:11:09Z</DateUtc></FrequencyChange></FrequencyChanges></Clock>\n"	1_PALT_S1_tACS-103-1	74.99	1.0.0.46	1	1739768667	Full	3.0.3.80	3.0.3.80	07-15-2022	2022. 07. 15. 13:11:10	15:11:10	3.0.3.82	Keyboard	Keyboard	Keyboard	Keyboard	2				BlockProc2	TESZT	1	1	1	18	4						TrialProc2		TesztIngerek	1	4	Keyboard	-999999	20	123924	0	4	3472	127396	19	1	18		rru	Ingerek/teszt/13_pig_sailboat.bmp
1_PALT_S1_tACS	103	1	"<?xml version=""1.0""?>\n<Clock xmlns:dt=""urn:schemas-microsoft-com:datatypes""><Description dt:dt=""string"">E-Prime Primary Realtime Clock</Description><StartTime><Timestamp dt:dt=""int"">0</Timestamp><DateUtc dt:dt=""string"">2022-07-15T13:11:09Z</DateUtc></StartTime><FrequencyChanges><FrequencyChange><Frequency dt:dt=""r8"">10000000</Frequency><Timestamp dt:dt=""r8"">17220260987697</Timestamp><Current dt:dt=""r8"">0</Current><DateUtc dt:dt=""string"">2022-07-15T13:11:09Z</DateUtc></FrequencyChange></FrequencyChanges></Clock>\n"	1_PALT_S1_tACS-103-1	74.99	1.0.0.46	1	1739768667	Full	3.0.3.80	3.0.3.80	07-15-2022	2022. 07. 15. 13:11:10	15:11:10	3.0.3.82	Keyboard	Keyboard	Keyboard	Keyboard	2				BlockProc2	TESZT	1	1	1	19	5						TrialProc2		TesztIngerek	0	5	Keyboard	-999999	20	127924	0	4	5424	133348	1	1	19		rre	Ingerek/teszt/1_bee_ball.bmp
1_PALT_S1_tACS	103	1	"<?xml version=""1.0""?>\n<Clock xmlns:dt=""urn:schemas-microsoft-com:datatypes""><Description dt:dt=""string"">E-Prime Primary Realtime Clock</Description><StartTime><Timestamp dt:dt=""int"">0</Timestamp><DateUtc dt:dt=""string"">2022-07-15T13:11:09Z</DateUtc></StartTime><FrequencyChanges><FrequencyChange><Frequency dt:dt=""r8"">10000000</Frequency><Timestamp dt:dt=""r8"">17220260987697</Timestamp><Current dt:dt=""r8"">0</Current><DateUtc dt:dt=""string"">2022-07-15T13:11:09Z</DateUtc></FrequencyChange></FrequencyChanges></Clock>\n"	1_PALT_S1_tACS-103-1	74.99	1.0.0.46	1	1739768667	Full	3.0.3.80	3.0.3.80	07-15-2022	2022. 07. 15. 13:11:10	15:11:10	3.0.3.82	Keyboard	Keyboard	Keyboard	Keyboard	2				BlockProc2	TESZT	1	1	1	20	1						TrialProc2		TesztIngerek	1	1	Keyboard	-999999	20	133884	0	1	2528	136412	15	1	20		uu	Ingerek/teszt/27_elephant_candel.bmp
1_PALT_S1_tACS	103	1	"<?xml version=""1.0""?>\n<Clock xmlns:dt=""urn:schemas-microsoft-com:datatypes""><Description dt:dt=""string"">E-Prime Primary Realtime Clock</Description><StartTime><Timestamp dt:dt=""int"">0</Timestamp><DateUtc dt:dt=""string"">2022-07-15T13:11:09Z</DateUtc></StartTime><FrequencyChanges><FrequencyChange><Frequency dt:dt=""r8"">10000000</Frequency><Timestamp dt:dt=""r8"">17220260987697</Timestamp><Current dt:dt=""r8"">0</Current><DateUtc dt:dt=""string"">2022-07-15T13:11:09Z</DateUtc></FrequencyChange></FrequencyChanges></Clock>\n"	1_PALT_S1_tACS-103-1	74.99	1.0.0.46	1	1739768667	Full	3.0.3.80	3.0.3.80	07-15-2022	2022. 07. 15. 13:11:10	15:11:10	3.0.3.82	Keyboard	Keyboard	Keyboard	Keyboard	2				BlockProc2	TESZT	1	1	1	21	5						TrialProc2		TesztIngerek	1	5	Keyboard	-999999	20	136938	0	5	3082	140020	18	1	21		rre	Ingerek/teszt/6_gorilla_desk.bmp
